"","subject_ids","diff_species","choice","Imj1","Imj2","Img3","CamNum","SD_card_num","ForestType","ForestName","round","Date_Out","Date_Checked","Use_End_Date","Forest","Species"
"1",39638664,1,"HUMAN","01_23_DEG_000001.JPG","01_23_DEG_000002.JPG","01_23_DEG_000003.JPG",1,23,"Pine","DEG",4,"9/27/19","11/17/19","11/17/19","Degrasse","Human"
"2",39638692,1,"DEERWHITETAILED","01_23_DEG_000004.JPG","01_23_DEG_000005.JPG","01_23_DEG_000006.JPG",1,23,"Pine","DEG",4,"9/27/19","11/17/19","11/17/19","Degrasse","White-tailed Deer"
"3",39638739,1,"CHIPMUNK","01_23_DEG_000007.JPG","01_23_DEG_000008.JPG","01_23_DEG_000009.JPG",1,23,"Pine","DEG",4,"9/27/19","11/17/19","11/17/19","Degrasse","Chipmunk"
"4",39638777,1,"COYOTE","01_23_DEG_000010.JPG","01_23_DEG_000011.JPG","01_23_DEG_000012.JPG",1,23,"Pine","DEG",4,"9/27/19","11/17/19","11/17/19","Degrasse","Coyote"
"5",39638788,2,"SOMETHINGHERE","01_23_DEG_000013.JPG","01_23_DEG_000014.JPG","01_23_DEG_000015.JPG",1,23,"Pine","DEG",4,"9/27/19","11/17/19","11/17/19","Degrasse","Something Here"
"6",39638804,2,"FISHER","01_23_DEG_000016.JPG","01_23_DEG_000017.JPG","01_23_DEG_000018.JPG",1,23,"Pine","DEG",4,"9/27/19","11/17/19","11/17/19","Degrasse","Fisher"
"7",39638831,1,"COTTONTAILRABBIT","01_23_DEG_000019.JPG","01_23_DEG_000020.JPG","01_23_DEG_000021.JPG",1,23,"Pine","DEG",4,"9/27/19","11/17/19","11/17/19","Degrasse","Cottontail Rabbit"
"8",39638837,1,"COTTONTAILRABBIT","01_23_DEG_000022.JPG","01_23_DEG_000023.JPG","01_23_DEG_000024.JPG",1,23,"Pine","DEG",4,"9/27/19","11/17/19","11/17/19","Degrasse","Cottontail Rabbit"
"9",39638847,1,"COTTONTAILRABBIT","01_23_DEG_000025.JPG","01_23_DEG_000026.JPG","01_23_DEG_000027.JPG",1,23,"Pine","DEG",4,"9/27/19","11/17/19","11/17/19","Degrasse","Cottontail Rabbit"
"10",39638862,1,"NOTHINGHERE","01_23_DEG_000028.JPG","01_23_DEG_000029.JPG","01_23_DEG_000030.JPG",1,23,"Pine","DEG",4,"9/27/19","11/17/19","11/17/19","Degrasse","Nothing Here"
"11",39638882,1,"NOTHINGHERE","01_23_DEG_000031.JPG","01_23_DEG_000032.JPG","01_23_DEG_000033.JPG",1,23,"Pine","DEG",4,"9/27/19","11/17/19","11/17/19","Degrasse","Nothing Here"
"12",39638904,1,"CHIPMUNK","01_23_DEG_000034.JPG","01_23_DEG_000035.JPG","01_23_DEG_000036.JPG",1,23,"Pine","DEG",4,"9/27/19","11/17/19","11/17/19","Degrasse","Chipmunk"
"13",39638906,1,"CHIPMUNK","01_23_DEG_000037.JPG","01_23_DEG_000038.JPG","01_23_DEG_000039.JPG",1,23,"Pine","DEG",4,"9/27/19","11/17/19","11/17/19","Degrasse","Chipmunk"
"14",39638920,1,"COTTONTAILRABBIT","01_23_DEG_000040.JPG","01_23_DEG_000042.JPG","01_23_DEG_000041.JPG",1,23,"Pine","DEG",4,"9/27/19","11/17/19","11/17/19","Degrasse","Cottontail Rabbit"
"15",39638921,1,"DEERWHITETAILED","01_23_DEG_000043.JPG","01_23_DEG_000044.JPG","01_23_DEG_000045.JPG",1,23,"Pine","DEG",4,"9/27/19","11/17/19","11/17/19","Degrasse","White-tailed Deer"
"16",39638922,1,"COTTONTAILRABBIT","01_23_DEG_000046.JPG","01_23_DEG_000047.JPG","01_23_DEG_000048.JPG",1,23,"Pine","DEG",4,"9/27/19","11/17/19","11/17/19","Degrasse","Cottontail Rabbit"
"17",39638930,1,"DEERWHITETAILED","01_23_DEG_000049.JPG","01_23_DEG_000051.JPG","01_23_DEG_000050.JPG",1,23,"Pine","DEG",4,"9/27/19","11/17/19","11/17/19","Degrasse","White-tailed Deer"
"18",39638935,1,"RACCOON","01_23_DEG_000052.JPG","01_23_DEG_000054.JPG","01_23_DEG_000053.JPG",1,23,"Pine","DEG",4,"9/27/19","11/17/19","11/17/19","Degrasse","Raccoon"
"19",39638986,2,"CHIPMUNK","01_23_DEG_000055.JPG","01_23_DEG_000056.JPG","01_23_DEG_000057.JPG",1,23,"Pine","DEG",4,"9/27/19","11/17/19","11/17/19","Degrasse","Chipmunk"
"20",39638989,1,"CHIPMUNK","01_23_DEG_000058.JPG","01_23_DEG_000059.JPG","01_23_DEG_000060.JPG",1,23,"Pine","DEG",4,"9/27/19","11/17/19","11/17/19","Degrasse","Chipmunk"
"21",39639040,1,"CHIPMUNK","01_23_DEG_000061.JPG","01_23_DEG_000062.JPG","01_23_DEG_000063.JPG",1,23,"Pine","DEG",4,"9/27/19","11/17/19","11/17/19","Degrasse","Chipmunk"
"22",39639044,1,"COTTONTAILRABBIT","01_23_DEG_000064.JPG","01_23_DEG_000066.JPG","01_23_DEG_000065.JPG",1,23,"Pine","DEG",4,"9/27/19","11/17/19","11/17/19","Degrasse","Cottontail Rabbit"
"23",39639045,1,"DEERWHITETAILED","01_23_DEG_000067.JPG","01_23_DEG_000068.JPG","01_23_DEG_000069.JPG",1,23,"Pine","DEG",4,"9/27/19","11/17/19","11/17/19","Degrasse","White-tailed Deer"
"24",39639134,1,"CHIPMUNK","01_23_DEG_000070.JPG","01_23_DEG_000071.JPG","01_23_DEG_000072.JPG",1,23,"Pine","DEG",4,"9/27/19","11/17/19","11/17/19","Degrasse","Chipmunk"
"25",39639136,1,"CHIPMUNK","01_23_DEG_000073.JPG","01_23_DEG_000074.JPG","01_23_DEG_000075.JPG",1,23,"Pine","DEG",4,"9/27/19","11/17/19","11/17/19","Degrasse","Chipmunk"
"26",39639207,1,"DEERWHITETAILED","01_23_DEG_000076.JPG","01_23_DEG_000077.JPG","01_23_DEG_000078.JPG",1,23,"Pine","DEG",4,"9/27/19","11/17/19","11/17/19","Degrasse","White-tailed Deer"
"27",39639218,1,"COTTONTAILRABBIT","01_23_DEG_000079.JPG","01_23_DEG_000080.JPG","01_23_DEG_000081.JPG",1,23,"Pine","DEG",4,"9/27/19","11/17/19","11/17/19","Degrasse","Cottontail Rabbit"
"28",39639247,1,"GROUSERUFFED","01_23_DEG_000083.JPG","01_23_DEG_000082.JPG",NA,1,23,"Pine","DEG",4,"9/27/19","11/17/19","11/17/19","Degrasse","Ruffed Grouse"
"29",39639304,1,"DEERWHITETAILED","01_23_DEG_000087.JPG","01_23_DEG_000085.JPG","01_23_DEG_000086.JPG",1,23,"Pine","DEG",4,"9/27/19","11/17/19","11/17/19","Degrasse","White-tailed Deer"
"30",39639307,1,"DEERWHITETAILED","01_23_DEG_000088.JPG","01_23_DEG_000089.JPG","01_23_DEG_000090.JPG",1,23,"Pine","DEG",4,"9/27/19","11/17/19","11/17/19","Degrasse","White-tailed Deer"
"31",39639401,1,"NOTHINGHERE","01_23_DEG_000091.JPG","01_23_DEG_000092.JPG","01_23_DEG_000093.JPG",1,23,"Pine","DEG",4,"9/27/19","11/17/19","11/17/19","Degrasse","Nothing Here"
"32",39639426,1,"COTTONTAILRABBIT","01_23_DEG_000094.JPG","01_23_DEG_000095.JPG","01_23_DEG_000096.JPG",1,23,"Pine","DEG",4,"9/27/19","11/17/19","11/17/19","Degrasse","Cottontail Rabbit"
"33",39639443,1,"SQUIRRELRED","01_23_DEG_000097.JPG","01_23_DEG_000098.JPG","01_23_DEG_000099.JPG",1,23,"Pine","DEG",4,"9/27/19","11/17/19","11/17/19","Degrasse","Red Squirrel"
"34",39639494,2,"SOMETHINGHERE","01_23_DEG_000100.JPG","01_23_DEG_000101.JPG","01_23_DEG_000102.JPG",1,23,"Pine","DEG",4,"9/27/19","11/17/19","11/17/19","Degrasse","Something Here"
"35",39639518,1,"NOTHINGHERE","01_23_DEG_000103.JPG","01_23_DEG_000104.JPG","01_23_DEG_000105.JPG",1,23,"Pine","DEG",4,"9/27/19","11/17/19","11/17/19","Degrasse","Nothing Here"
"36",39639520,1,"COYOTE","01_23_DEG_000106.JPG","01_23_DEG_000107.JPG","01_23_DEG_000108.JPG",1,23,"Pine","DEG",4,"9/27/19","11/17/19","11/17/19","Degrasse","Coyote"
"37",39639594,1,"NOTHINGHERE","01_23_DEG_000109.JPG","01_23_DEG_000110.JPG","01_23_DEG_000111.JPG",1,23,"Pine","DEG",4,"9/27/19","11/17/19","11/17/19","Degrasse","Nothing Here"
"38",39639665,1,"NOTHINGHERE","01_23_DEG_000112.JPG","01_23_DEG_000114.JPG","01_23_DEG_000113.JPG",1,23,"Pine","DEG",4,"9/27/19","11/17/19","11/17/19","Degrasse","Nothing Here"
"39",39639684,1,"COTTONTAILRABBIT","01_23_DEG_000115.JPG","01_23_DEG_000116.JPG","01_23_DEG_000117.JPG",1,23,"Pine","DEG",4,"9/27/19","11/17/19","11/17/19","Degrasse","Cottontail Rabbit"
"40",39639693,1,"BLUEJAY","01_23_DEG_000118.JPG","01_23_DEG_000119.JPG","01_23_DEG_000120.JPG",1,23,"Pine","DEG",4,"9/27/19","11/17/19","11/17/19","Degrasse","Blue Jay"
"41",39639699,1,"OTHERSMALLMAMMAL","01_23_DEG_000121.JPG","01_23_DEG_000122.JPG","01_23_DEG_000123.JPG",1,23,"Pine","DEG",4,"9/27/19","11/17/19","11/17/19","Degrasse","Other Small Mammal"
"42",39639702,1,"DEERWHITETAILED","01_23_DEG_000124.JPG","01_23_DEG_000125.JPG","01_23_DEG_000126.JPG",1,23,"Pine","DEG",4,"9/27/19","11/17/19","11/17/19","Degrasse","White-tailed Deer"
"43",39639807,2,"SOMETHINGHERE","01_23_DEG_000127.JPG","01_23_DEG_000128.JPG","01_23_DEG_000129.JPG",1,23,"Pine","DEG",4,"9/27/19","11/17/19","11/17/19","Degrasse","Something Here"
"44",39639814,1,"DEERWHITETAILED","01_23_DEG_000131.JPG","01_23_DEG_000130.JPG","01_23_DEG_000132.JPG",1,23,"Pine","DEG",4,"9/27/19","11/17/19","11/17/19","Degrasse","White-tailed Deer"
"45",39639875,1,"FISHER","01_23_DEG_000133.JPG","01_23_DEG_000134.JPG","01_23_DEG_000135.JPG",1,23,"Pine","DEG",4,"9/27/19","11/17/19","11/17/19","Degrasse","Fisher"
"46",39639879,1,"DEERWHITETAILED","01_23_DEG_000136.JPG","01_23_DEG_000137.JPG","01_23_DEG_000138.JPG",1,23,"Pine","DEG",4,"9/27/19","11/17/19","11/17/19","Degrasse","White-tailed Deer"
"47",39639890,1,"COYOTE","01_23_DEG_000139.JPG","01_23_DEG_000140.JPG","01_23_DEG_000141.JPG",1,23,"Pine","DEG",4,"9/27/19","11/17/19","11/17/19","Degrasse","Coyote"
"48",39639894,1,"NOTHINGHERE","01_23_DEG_000142.JPG","01_23_DEG_000144.JPG","01_23_DEG_000143.JPG",1,23,"Pine","DEG",4,"9/27/19","11/17/19","11/17/19","Degrasse","Nothing Here"
"49",39639947,1,"DEERWHITETAILED","01_23_DEG_000148.JPG","01_23_DEG_000149.JPG","01_23_DEG_000150.JPG",1,23,"Pine","DEG",4,"9/27/19","11/17/19","11/17/19","Degrasse","White-tailed Deer"
"50",39639953,1,"DEERWHITETAILED","01_23_DEG_000151.JPG","01_23_DEG_000152.JPG","01_23_DEG_000153.JPG",1,23,"Pine","DEG",4,"9/27/19","11/17/19","11/17/19","Degrasse","White-tailed Deer"
"51",39639954,1,"FISHER","01_23_DEG_000154.JPG","01_23_DEG_000155.JPG","01_23_DEG_000156.JPG",1,23,"Pine","DEG",4,"9/27/19","11/17/19","11/17/19","Degrasse","Fisher"
"52",39639964,1,"OTHERBIRD","01_23_DEG_000157.JPG","01_23_DEG_000158.JPG","01_23_DEG_000159.JPG",1,23,"Pine","DEG",4,"9/27/19","11/17/19","11/17/19","Degrasse","Other Bird"
"53",39639972,1,"HUMAN","01_23_DEG_000160.JPG","01_23_DEG_000161.JPG",NA,1,23,"Pine","DEG",4,"9/27/19","11/17/19","11/17/19","Degrasse","Human"
"54",39638591,1,"OPOSSUM","02_07_SH_000001.JPG","02_07_SH_000002.JPG","02_07_SH_000003.JPG",2,7,"Deciduous","SH",4,"9/20/19","12/7/19","9/25/19","South Hammond","Opossum "
"55",39638592,1,"OPOSSUM","02_07_SH_000004.JPG","02_07_SH_000005.JPG","02_07_SH_000006.JPG",2,7,"Deciduous","SH",4,"9/20/19","12/7/19","9/25/19","South Hammond","Opossum "
"56",39638600,1,"SQUIRRELGRAY","02_07_SH_000007.JPG","02_07_SH_000008.JPG","02_07_SH_000009.JPG",2,7,"Deciduous","SH",4,"9/20/19","12/7/19","9/25/19","South Hammond","Gray Squirrel"
"57",39638606,1,"SQUIRRELGRAY","02_07_SH_000010.JPG","02_07_SH_000011.JPG","02_07_SH_000012.JPG",2,7,"Deciduous","SH",4,"9/20/19","12/7/19","9/25/19","South Hammond","Gray Squirrel"
"58",39638615,1,"RACCOON","02_07_SH_000013.JPG","02_07_SH_000014.JPG","02_07_SH_000015.JPG",2,7,"Deciduous","SH",4,"9/20/19","12/7/19","9/25/19","South Hammond","Raccoon"
"59",39638627,2,"BLACKBEAR","02_07_SH_000016.JPG","02_07_SH_000017.JPG","02_07_SH_000018.JPG",2,7,"Deciduous","SH",4,"9/20/19","12/7/19","9/25/19","South Hammond","Black Bear"
"60",39638631,1,"BLACKBEAR","02_07_SH_000019.JPG","02_07_SH_000020.JPG","02_07_SH_000021.JPG",2,7,"Deciduous","SH",4,"9/20/19","12/7/19","9/25/19","South Hammond","Black Bear"
"61",37156528,1,"HUMAN","02_42_WHIP_000001.JPG","02_42_WHIP_000002.JPG","02_42_WHIP_000003.JPG",2,42,"Pine","WHIP",2,"1/24/19","5/13/19","4/22/19","Whippoorwill Corners","Human"
"62",37156529,1,"DEERWHITETAILED","02_42_WHIP_000004.JPG","02_42_WHIP_000005.JPG","02_42_WHIP_000006.JPG",2,42,"Pine","WHIP",2,"1/24/19","5/13/19","4/22/19","Whippoorwill Corners","White-tailed Deer"
"63",37156530,1,"FISHER","02_42_WHIP_000007.JPG","02_42_WHIP_000008.JPG","02_42_WHIP_000009.JPG",2,42,"Pine","WHIP",2,"1/24/19","5/13/19","4/22/19","Whippoorwill Corners","Fisher"
"64",37156531,1,"DEERWHITETAILED","02_42_WHIP_000010.JPG","02_42_WHIP_000011.JPG","02_42_WHIP_000012.JPG",2,42,"Pine","WHIP",2,"1/24/19","5/13/19","4/22/19","Whippoorwill Corners","White-tailed Deer"
"65",37156532,1,"DEERWHITETAILED","02_42_WHIP_000013.JPG","02_42_WHIP_000014.JPG","02_42_WHIP_000015.JPG",2,42,"Pine","WHIP",2,"1/24/19","5/13/19","4/22/19","Whippoorwill Corners","White-tailed Deer"
"66",37156533,1,"NOTHINGHERE","02_42_WHIP_000016.JPG","02_42_WHIP_000017.JPG","02_42_WHIP_000018.JPG",2,42,"Pine","WHIP",2,"1/24/19","5/13/19","4/22/19","Whippoorwill Corners","Nothing Here"
"67",37156534,1,"NOTHINGHERE","02_42_WHIP_000019.JPG","02_42_WHIP_000020.JPG",NA,2,42,"Pine","WHIP",2,"1/24/19","5/13/19","4/22/19","Whippoorwill Corners","Nothing Here"
"68",37156535,1,"DEERWHITETAILED","02_42_WHIP_000022.JPG","02_42_WHIP_000023.JPG",NA,2,42,"Pine","WHIP",2,"1/24/19","5/13/19","4/22/19","Whippoorwill Corners","White-tailed Deer"
"69",37156536,1,"DEERWHITETAILED","02_42_WHIP_000025.JPG","02_42_WHIP_000026.JPG",NA,2,42,"Pine","WHIP",2,"1/24/19","5/13/19","4/22/19","Whippoorwill Corners","White-tailed Deer"
"70",37156537,1,"DEERWHITETAILED","02_42_WHIP_000028.JPG","02_42_WHIP_000029.JPG",NA,2,42,"Pine","WHIP",2,"1/24/19","5/13/19","4/22/19","Whippoorwill Corners","White-tailed Deer"
"71",37156538,1,"DEERWHITETAILED","02_42_WHIP_000034.JPG","02_42_WHIP_000035.JPG","02_42_WHIP_000036.JPG",2,42,"Pine","WHIP",2,"1/24/19","5/13/19","4/22/19","Whippoorwill Corners","White-tailed Deer"
"72",37156539,1,"NOTHINGHERE","02_42_WHIP_000037.JPG","02_42_WHIP_000038.JPG","02_42_WHIP_000039.JPG",2,42,"Pine","WHIP",2,"1/24/19","5/13/19","4/22/19","Whippoorwill Corners","Nothing Here"
"73",37156540,1,"DEERWHITETAILED","02_42_WHIP_000040.JPG","02_42_WHIP_000041.JPG","02_42_WHIP_000042.JPG",2,42,"Pine","WHIP",2,"1/24/19","5/13/19","4/22/19","Whippoorwill Corners","White-tailed Deer"
"74",37156541,1,"SOMETHINGHERE","02_42_WHIP_000043.JPG","02_42_WHIP_000044.JPG","02_42_WHIP_000045.JPG",2,42,"Pine","WHIP",2,"1/24/19","5/13/19","4/22/19","Whippoorwill Corners","Something Here"
"75",37156542,1,"DEERWHITETAILED","02_42_WHIP_000046.JPG","02_42_WHIP_000047.JPG","02_42_WHIP_000048.JPG",2,42,"Pine","WHIP",2,"1/24/19","5/13/19","4/22/19","Whippoorwill Corners","White-tailed Deer"
"76",37156543,1,"DEERWHITETAILED","02_42_WHIP_000049.JPG","02_42_WHIP_000050.JPG","02_42_WHIP_000051.JPG",2,42,"Pine","WHIP",2,"1/24/19","5/13/19","4/22/19","Whippoorwill Corners","White-tailed Deer"
"77",37156544,1,"HUMAN","02_42_WHIP_000052.JPG","02_42_WHIP_000053.JPG","02_42_WHIP_000054.JPG",2,42,"Pine","WHIP",2,"1/24/19","5/13/19","4/22/19","Whippoorwill Corners","Human"
"78",37156545,1,"HUMAN","02_42_WHIP_000055.JPG","02_42_WHIP_000056.JPG","02_42_WHIP_000057.JPG",2,42,"Pine","WHIP",2,"1/24/19","5/13/19","4/22/19","Whippoorwill Corners","Human"
"79",37156546,1,"HUMAN","02_42_WHIP_000058.JPG","02_42_WHIP_000059.JPG","02_42_WHIP_000060.JPG",2,42,"Pine","WHIP",2,"1/24/19","5/13/19","4/22/19","Whippoorwill Corners","Human"
"80",37156547,1,"DEERWHITETAILED","02_42_WHIP_000061.JPG","02_42_WHIP_000062.JPG","02_42_WHIP_000063.JPG",2,42,"Pine","WHIP",2,"1/24/19","5/13/19","4/22/19","Whippoorwill Corners","White-tailed Deer"
"81",37156548,1,"DEERWHITETAILED","02_42_WHIP_000064.JPG","02_42_WHIP_000065.JPG","02_42_WHIP_000066.JPG",2,42,"Pine","WHIP",2,"1/24/19","5/13/19","4/22/19","Whippoorwill Corners","White-tailed Deer"
"82",37156550,1,"DEERWHITETAILED","02_42_WHIP_000067.JPG","02_42_WHIP_000068.JPG","02_42_WHIP_000069.JPG",2,42,"Pine","WHIP",2,"1/24/19","5/13/19","4/22/19","Whippoorwill Corners","White-tailed Deer"
"83",37156551,1,"DEERWHITETAILED","02_42_WHIP_000070.JPG","02_42_WHIP_000071.JPG","02_42_WHIP_000072.JPG",2,42,"Pine","WHIP",2,"1/24/19","5/13/19","4/22/19","Whippoorwill Corners","White-tailed Deer"
"84",37156552,1,"RACCOON","02_42_WHIP_000073.JPG","02_42_WHIP_000074.JPG","02_42_WHIP_000075.JPG",2,42,"Pine","WHIP",2,"1/24/19","5/13/19","4/22/19","Whippoorwill Corners","Raccoon"
"85",37156553,1,"DEERWHITETAILED","02_42_WHIP_000076.JPG","02_42_WHIP_000077.JPG","02_42_WHIP_000078.JPG",2,42,"Pine","WHIP",2,"1/24/19","5/13/19","4/22/19","Whippoorwill Corners","White-tailed Deer"
"86",37156554,2,"SOMETHINGHERE","02_42_WHIP_000079.JPG","02_42_WHIP_000080.JPG","02_42_WHIP_000081.JPG",2,42,"Pine","WHIP",2,"1/24/19","5/13/19","4/22/19","Whippoorwill Corners","Something Here"
"87",37156555,1,"RACCOON","02_42_WHIP_000082.JPG","02_42_WHIP_000083.JPG","02_42_WHIP_000084.JPG",2,42,"Pine","WHIP",2,"1/24/19","5/13/19","4/22/19","Whippoorwill Corners","Raccoon"
"88",37156556,2,"SOMETHINGHERE","02_42_WHIP_000085.JPG","02_42_WHIP_000086.JPG","02_42_WHIP_000087.JPG",2,42,"Pine","WHIP",2,"1/24/19","5/13/19","4/22/19","Whippoorwill Corners","Something Here"
"89",37156557,1,"DEERWHITETAILED","02_42_WHIP_000088.JPG","02_42_WHIP_000089.JPG","02_42_WHIP_000090.JPG",2,42,"Pine","WHIP",2,"1/24/19","5/13/19","4/22/19","Whippoorwill Corners","White-tailed Deer"
"90",37156558,1,"DEERWHITETAILED","02_42_WHIP_000091.JPG","02_42_WHIP_000092.JPG","02_42_WHIP_000093.JPG",2,42,"Pine","WHIP",2,"1/24/19","5/13/19","4/22/19","Whippoorwill Corners","White-tailed Deer"
"91",37156559,1,"TURKEY","02_42_WHIP_000094.JPG","02_42_WHIP_000095.JPG",NA,2,42,"Pine","WHIP",2,"1/24/19","5/13/19","4/22/19","Whippoorwill Corners","Turkey"
"92",37156560,1,"COYOTE","02_42_WHIP_000097.JPG","02_42_WHIP_000098.JPG","02_42_WHIP_000099.JPG",2,42,"Pine","WHIP",2,"1/24/19","5/13/19","4/22/19","Whippoorwill Corners","Coyote"
"93",37156561,1,"DEERWHITETAILED","02_42_WHIP_000100.JPG","02_42_WHIP_000101.JPG","02_42_WHIP_000102.JPG",2,42,"Pine","WHIP",2,"1/24/19","5/13/19","4/22/19","Whippoorwill Corners","White-tailed Deer"
"94",37156562,1,"NOTHINGHERE","02_42_WHIP_000103.JPG","02_42_WHIP_000104.JPG","02_42_WHIP_000105.JPG",2,42,"Pine","WHIP",2,"1/24/19","5/13/19","4/22/19","Whippoorwill Corners","Nothing Here"
"95",37818668,1,"COTTONTAILRABBIT","03_05_SH_000001.JPG","03_05_SH_000002.JPG","03_05_SH_000003.JPG",3,5,"Deciduous","SH",1,"11/14/18","2/11/19","11/28/18","South Hammond","Cottontail Rabbit"
"96",31428286,1,"NOTHINGHERE","03_05_SH_000001.JPG","03_05_SH_000002.JPG","03_05_SH_000003.JPG",3,5,"Deciduous","SH",3,"5/10/19","8/31/19","8/31/19","South Hammond","Nothing Here"
"97",37818669,1,"NOTHINGHERE","03_05_SH_000004.JPG","03_05_SH_000005.JPG","03_05_SH_000006.JPG",3,5,"Deciduous","SH",1,"11/14/18","2/11/19","11/28/18","South Hammond","Nothing Here"
"98",31428287,2,"NOTHINGHERE","03_05_SH_000004.JPG","03_05_SH_000005.JPG","03_05_SH_000006.JPG",3,5,"Deciduous","SH",3,"5/10/19","8/31/19","8/31/19","South Hammond","Nothing Here"
"99",31428288,1,"NOTHINGHERE","03_05_SH_000007.JPG","03_05_SH_000008.JPG","03_05_SH_000009.JPG",3,5,"Deciduous","SH",1,"11/14/18","2/11/19","11/28/18","South Hammond","Nothing Here"
"100",37818670,2,"COTTONTAILRABBIT","03_05_SH_000007.JPG","03_05_SH_000008.JPG","03_05_SH_000009.JPG",3,5,"Deciduous","SH",3,"5/10/19","8/31/19","8/31/19","South Hammond","Cottontail Rabbit"
"101",31428289,1,"NOTHINGHERE","03_05_SH_000010.JPG","03_05_SH_000011.JPG","03_05_SH_000012.JPG",3,5,"Deciduous","SH",1,"11/14/18","2/11/19","11/28/18","South Hammond","Nothing Here"
"102",37818671,1,"COTTONTAILRABBIT","03_05_SH_000010.JPG","03_05_SH_000011.JPG","03_05_SH_000012.JPG",3,5,"Deciduous","SH",3,"5/10/19","8/31/19","8/31/19","South Hammond","Cottontail Rabbit"
"103",37818851,1,"DEERWHITETAILED","03_05_SH_000013.JPG","03_05_SH_000014.JPG","03_05_SH_000015.JPG",3,5,"Deciduous","SH",1,"11/14/18","2/11/19","11/28/18","South Hammond","White-tailed Deer"
"104",31428290,1,"DEERWHITETAILED","03_05_SH_000013.JPG","03_05_SH_000014.JPG","03_05_SH_000015.JPG",3,5,"Deciduous","SH",3,"5/10/19","8/31/19","8/31/19","South Hammond","White-tailed Deer"
"105",37820265,1,"DOMESTICCAT","03_05_SH_000028.JPG","03_05_SH_000029.JPG",NA,3,5,"Deciduous","SH",3,"5/10/19","8/31/19","8/31/19","South Hammond","Domestic Cat"
"106",37814462,1,"NOTHINGHERE","03_05_SH_000043.JPG","03_05_SH_000044.JPG",NA,3,5,"Deciduous","SH",3,"5/10/19","8/31/19","8/31/19","South Hammond","Nothing Here"
"107",37814454,1,"NOTHINGHERE","03_05_SH_000049.JPG","03_05_SH_000050.JPG",NA,3,5,"Deciduous","SH",3,"5/10/19","8/31/19","8/31/19","South Hammond","Nothing Here"
"108",37814455,1,"NOTHINGHERE","03_05_SH_000073.JPG","03_05_SH_000074.JPG",NA,3,5,"Deciduous","SH",3,"5/10/19","8/31/19","8/31/19","South Hammond","Nothing Here"
"109",37814456,1,"NOTHINGHERE","03_05_SH_000082.JPG","03_05_SH_000083.JPG",NA,3,5,"Deciduous","SH",3,"5/10/19","8/31/19","8/31/19","South Hammond","Nothing Here"
"110",37814457,1,"NOTHINGHERE","03_05_SH_000097.JPG","03_05_SH_000100.JPG",NA,3,5,"Deciduous","SH",3,"5/10/19","8/31/19","8/31/19","South Hammond","Nothing Here"
"111",37814458,1,"NOTHINGHERE","03_05_SH_000118.JPG","03_05_SH_000119.JPG",NA,3,5,"Deciduous","SH",3,"5/10/19","8/31/19","8/31/19","South Hammond","Nothing Here"
"112",37156563,1,"NOTHINGHERE","03_07_SH_000001.JPG","03_07_SH_000002.JPG","03_07_SH_000003.JPG",3,7,"Deciduous","SH",2,"2/11/19","5/10/19","5/10/19","South Hammond","Nothing Here"
"113",37156564,1,"TURKEY","03_07_SH_000004.JPG","03_07_SH_000005.JPG","03_07_SH_000006.JPG",3,7,"Deciduous","SH",2,"2/11/19","5/10/19","5/10/19","South Hammond","Turkey"
"114",37156565,1,"DEERWHITETAILED","03_07_SH_000007.JPG","03_07_SH_000008.JPG","03_07_SH_000009.JPG",3,7,"Deciduous","SH",2,"2/11/19","5/10/19","5/10/19","South Hammond","White-tailed Deer"
"115",37156566,1,"DEERWHITETAILED","03_07_SH_000010.JPG","03_07_SH_000011.JPG","03_07_SH_000012.JPG",3,7,"Deciduous","SH",2,"2/11/19","5/10/19","5/10/19","South Hammond","White-tailed Deer"
"116",37156567,1,"DEERWHITETAILED","03_07_SH_000013.JPG","03_07_SH_000014.JPG","03_07_SH_000015.JPG",3,7,"Deciduous","SH",2,"2/11/19","5/10/19","5/10/19","South Hammond","White-tailed Deer"
"117",37156568,2,"NOTHINGHERE","03_07_SH_000016.JPG","03_07_SH_000017.JPG","03_07_SH_000018.JPG",3,7,"Deciduous","SH",2,"2/11/19","5/10/19","5/10/19","South Hammond","Nothing Here"
"118",37156569,1,"DEERWHITETAILED","03_07_SH_000019.JPG","03_07_SH_000020.JPG","03_07_SH_000021.JPG",3,7,"Deciduous","SH",2,"2/11/19","5/10/19","5/10/19","South Hammond","White-tailed Deer"
"119",37156570,1,"DEERWHITETAILED","03_07_SH_000022.JPG","03_07_SH_000023.JPG","03_07_SH_000024.JPG",3,7,"Deciduous","SH",2,"2/11/19","5/10/19","5/10/19","South Hammond","White-tailed Deer"
"120",37156571,1,"DEERWHITETAILED","03_07_SH_000025.JPG","03_07_SH_000026.JPG","03_07_SH_000027.JPG",3,7,"Deciduous","SH",2,"2/11/19","5/10/19","5/10/19","South Hammond","White-tailed Deer"
"121",37156572,1,"DEERWHITETAILED","03_07_SH_000028.JPG","03_07_SH_000029.JPG","03_07_SH_000030.JPG",3,7,"Deciduous","SH",2,"2/11/19","5/10/19","5/10/19","South Hammond","White-tailed Deer"
"122",37156573,1,"DEERWHITETAILED","03_07_SH_000031.JPG","03_07_SH_000032.JPG","03_07_SH_000033.JPG",3,7,"Deciduous","SH",2,"2/11/19","5/10/19","5/10/19","South Hammond","White-tailed Deer"
"123",37156574,1,"NOTHINGHERE","03_07_SH_000036.JPG","03_07_SH_000034.JPG","03_07_SH_000035.JPG",3,7,"Deciduous","SH",2,"2/11/19","5/10/19","5/10/19","South Hammond","Nothing Here"
"124",37156575,1,"NOTHINGHERE","03_07_SH_000037.JPG","03_07_SH_000038.JPG","03_07_SH_000039.JPG",3,7,"Deciduous","SH",2,"2/11/19","5/10/19","5/10/19","South Hammond","Nothing Here"
"125",37156576,1,"NOTHINGHERE","03_07_SH_000040.JPG","03_07_SH_000041.JPG","03_07_SH_000042.JPG",3,7,"Deciduous","SH",2,"2/11/19","5/10/19","5/10/19","South Hammond","Nothing Here"
"126",37156577,1,"NOTHINGHERE","03_07_SH_000043.JPG","03_07_SH_000044.JPG","03_07_SH_000045.JPG",3,7,"Deciduous","SH",2,"2/11/19","5/10/19","5/10/19","South Hammond","Nothing Here"
"127",37156578,1,"NOTHINGHERE","03_07_SH_000046.JPG","03_07_SH_000047.JPG","03_07_SH_000048.JPG",3,7,"Deciduous","SH",2,"2/11/19","5/10/19","5/10/19","South Hammond","Nothing Here"
"128",37156579,1,"NOTHINGHERE","03_07_SH_000049.JPG","03_07_SH_000050.JPG","03_07_SH_000051.JPG",3,7,"Deciduous","SH",2,"2/11/19","5/10/19","5/10/19","South Hammond","Nothing Here"
"129",37156580,1,"NOTHINGHERE","03_07_SH_000052.JPG","03_07_SH_000053.JPG","03_07_SH_000054.JPG",3,7,"Deciduous","SH",2,"2/11/19","5/10/19","5/10/19","South Hammond","Nothing Here"
"130",37156581,2,"SOMETHINGHERE","03_07_SH_000055.JPG","03_07_SH_000056.JPG","03_07_SH_000057.JPG",3,7,"Deciduous","SH",2,"2/11/19","5/10/19","5/10/19","South Hammond","Something Here"
"131",37156582,1,"DEERWHITETAILED","03_07_SH_000058.JPG","03_07_SH_000059.JPG","03_07_SH_000060.JPG",3,7,"Deciduous","SH",2,"2/11/19","5/10/19","5/10/19","South Hammond","White-tailed Deer"
"132",37156583,1,"DEERWHITETAILED","03_07_SH_000061.JPG","03_07_SH_000062.JPG","03_07_SH_000063.JPG",3,7,"Deciduous","SH",2,"2/11/19","5/10/19","5/10/19","South Hammond","White-tailed Deer"
"133",37156584,1,"DEERWHITETAILED","03_07_SH_000064.JPG","03_07_SH_000065.JPG","03_07_SH_000066.JPG",3,7,"Deciduous","SH",2,"2/11/19","5/10/19","5/10/19","South Hammond","White-tailed Deer"
"134",37156585,1,"DEERWHITETAILED","03_07_SH_000067.JPG","03_07_SH_000068.JPG","03_07_SH_000069.JPG",3,7,"Deciduous","SH",2,"2/11/19","5/10/19","5/10/19","South Hammond","White-tailed Deer"
"135",37156586,1,"DEERWHITETAILED","03_07_SH_000070.JPG","03_07_SH_000071.JPG","03_07_SH_000072.JPG",3,7,"Deciduous","SH",2,"2/11/19","5/10/19","5/10/19","South Hammond","White-tailed Deer"
"136",37156587,1,"NOTHINGHERE","03_07_SH_000073.JPG","03_07_SH_000074.JPG","03_07_SH_000075.JPG",3,7,"Deciduous","SH",2,"2/11/19","5/10/19","5/10/19","South Hammond","Nothing Here"
"137",37156588,1,"DEERWHITETAILED","03_07_SH_000076.JPG","03_07_SH_000077.JPG","03_07_SH_000078.JPG",3,7,"Deciduous","SH",2,"2/11/19","5/10/19","5/10/19","South Hammond","White-tailed Deer"
"138",37156589,2,"DEERWHITETAILED","03_07_SH_000079.JPG","03_07_SH_000080.JPG","03_07_SH_000081.JPG",3,7,"Deciduous","SH",2,"2/11/19","5/10/19","5/10/19","South Hammond","White-tailed Deer"
"139",37156590,1,"DEERWHITETAILED","03_07_SH_000082.JPG","03_07_SH_000083.JPG","03_07_SH_000084.JPG",3,7,"Deciduous","SH",2,"2/11/19","5/10/19","5/10/19","South Hammond","White-tailed Deer"
"140",37156591,1,"DEERWHITETAILED","03_07_SH_000085.JPG","03_07_SH_000086.JPG","03_07_SH_000087.JPG",3,7,"Deciduous","SH",2,"2/11/19","5/10/19","5/10/19","South Hammond","White-tailed Deer"
"141",37156592,1,"DEERWHITETAILED","03_07_SH_000088.JPG","03_07_SH_000089.JPG","03_07_SH_000090.JPG",3,7,"Deciduous","SH",2,"2/11/19","5/10/19","5/10/19","South Hammond","White-tailed Deer"
"142",37156593,1,"DEERWHITETAILED","03_07_SH_000091.JPG","03_07_SH_000092.JPG","03_07_SH_000093.JPG",3,7,"Deciduous","SH",2,"2/11/19","5/10/19","5/10/19","South Hammond","White-tailed Deer"
"143",37156594,1,"DEERWHITETAILED","03_07_SH_000094.JPG","03_07_SH_000095.JPG","03_07_SH_000096.JPG",3,7,"Deciduous","SH",2,"2/11/19","5/10/19","5/10/19","South Hammond","White-tailed Deer"
"144",37156595,1,"DEERWHITETAILED","03_07_SH_000097.JPG","03_07_SH_000098.JPG","03_07_SH_000099.JPG",3,7,"Deciduous","SH",2,"2/11/19","5/10/19","5/10/19","South Hammond","White-tailed Deer"
"145",37156596,1,"DEERWHITETAILED","03_07_SH_000100.JPG","03_07_SH_000101.JPG","03_07_SH_000102.JPG",3,7,"Deciduous","SH",2,"2/11/19","5/10/19","5/10/19","South Hammond","White-tailed Deer"
"146",37156597,1,"DEERWHITETAILED","03_07_SH_000103.JPG","03_07_SH_000104.JPG","03_07_SH_000105.JPG",3,7,"Deciduous","SH",2,"2/11/19","5/10/19","5/10/19","South Hammond","White-tailed Deer"
"147",37156598,1,"DEERWHITETAILED","03_07_SH_000109.JPG","03_07_SH_000110.JPG","03_07_SH_000111.JPG",3,7,"Deciduous","SH",2,"2/11/19","5/10/19","5/10/19","South Hammond","White-tailed Deer"
"148",37156599,1,"DEERWHITETAILED","03_07_SH_000112.JPG","03_07_SH_000113.JPG","03_07_SH_000114.JPG",3,7,"Deciduous","SH",2,"2/11/19","5/10/19","5/10/19","South Hammond","White-tailed Deer"
"149",37156600,1,"DEERWHITETAILED","03_07_SH_000115.JPG","03_07_SH_000116.JPG","03_07_SH_000117.JPG",3,7,"Deciduous","SH",2,"2/11/19","5/10/19","5/10/19","South Hammond","White-tailed Deer"
"150",37156601,2,"DEERWHITETAILED","03_07_SH_000118.JPG","03_07_SH_000119.JPG","03_07_SH_000120.JPG",3,7,"Deciduous","SH",2,"2/11/19","5/10/19","5/10/19","South Hammond","White-tailed Deer"
"151",37156602,1,"DEERWHITETAILED","03_07_SH_000121.JPG","03_07_SH_000122.JPG","03_07_SH_000123.JPG",3,7,"Deciduous","SH",2,"2/11/19","5/10/19","5/10/19","South Hammond","White-tailed Deer"
"152",37156603,1,"NOTHINGHERE","03_07_SH_000124.JPG","03_07_SH_000125.JPG","03_07_SH_000126.JPG",3,7,"Deciduous","SH",2,"2/11/19","5/10/19","5/10/19","South Hammond","Nothing Here"
"153",37156604,1,"SOMETHINGHERE","03_07_SH_000127.JPG","03_07_SH_000128.JPG","03_07_SH_000129.JPG",3,7,"Deciduous","SH",2,"2/11/19","5/10/19","5/10/19","South Hammond","Something Here"
"154",39638704,1,"HUMAN","03_39_WF_000001.JPG","03_39_WF_000002.JPG","03_39_WF_000003.JPG",3,39,"Pine","WF",4,"9/29/19","12/6/19","12/6/19","Whiskey Flats","Human"
"155",39638994,1,"HUMAN","03_39_WF_000004.JPG","03_39_WF_000005.JPG","03_39_WF_000006.JPG",3,39,"Pine","WF",4,"9/29/19","12/6/19","12/6/19","Whiskey Flats","Human"
"156",39639088,1,"BLUEJAY","03_39_WF_000007.JPG","03_39_WF_000008.JPG","03_39_WF_000009.JPG",3,39,"Pine","WF",4,"9/29/19","12/6/19","12/6/19","Whiskey Flats","Blue Jay"
"157",39639315,1,"COYOTE","03_39_WF_000010.JPG","03_39_WF_000011.JPG","03_39_WF_000012.JPG",3,39,"Pine","WF",4,"9/29/19","12/6/19","12/6/19","Whiskey Flats","Coyote"
"158",39639501,1,"TURKEY","03_39_WF_000014.JPG","03_39_WF_000013.JPG","03_39_WF_000015.JPG",3,39,"Pine","WF",4,"9/29/19","12/6/19","12/6/19","Whiskey Flats","Turkey"
"159",39639522,1,"DEERWHITETAILED","03_39_WF_000016.JPG","03_39_WF_000017.JPG","03_39_WF_000018.JPG",3,39,"Pine","WF",4,"9/29/19","12/6/19","12/6/19","Whiskey Flats","White-tailed Deer"
"160",39639604,1,"TURKEY","03_39_WF_000019.JPG","03_39_WF_000020.JPG","03_39_WF_000021.JPG",3,39,"Pine","WF",4,"9/29/19","12/6/19","12/6/19","Whiskey Flats","Turkey"
"161",39639648,1,"NOTHINGHERE","03_39_WF_000022.JPG","03_39_WF_000024.JPG","03_39_WF_000023.JPG",3,39,"Pine","WF",4,"9/29/19","12/6/19","12/6/19","Whiskey Flats","Nothing Here"
"162",39639884,1,"COYOTE","03_39_WF_000025.JPG","03_39_WF_000026.JPG","03_39_WF_000027.JPG",3,39,"Pine","WF",4,"9/29/19","12/6/19","12/6/19","Whiskey Flats","Coyote"
"163",39639903,1,"DEERWHITETAILED","03_39_WF_000028.JPG","03_39_WF_000029.JPG","03_39_WF_000030.JPG",3,39,"Pine","WF",4,"9/29/19","12/6/19","12/6/19","Whiskey Flats","White-tailed Deer"
"164",39639949,1,"DEERWHITETAILED","03_39_WF_000031.JPG","03_39_WF_000032.JPG","03_39_WF_000033.JPG",3,39,"Pine","WF",4,"9/29/19","12/6/19","12/6/19","Whiskey Flats","White-tailed Deer"
"165",39639950,1,"DEERWHITETAILED","03_39_WF_000034.JPG","03_39_WF_000035.JPG","03_39_WF_000036.JPG",3,39,"Pine","WF",4,"9/29/19","12/6/19","12/6/19","Whiskey Flats","White-tailed Deer"
"166",39640010,1,"DEERWHITETAILED","03_39_WF_000037.JPG","03_39_WF_000038.JPG","03_39_WF_000039.JPG",3,39,"Pine","WF",4,"9/29/19","12/6/19","12/6/19","Whiskey Flats","White-tailed Deer"
"167",39640077,1,"NOTHINGHERE","03_39_WF_000040.JPG","03_39_WF_000041.JPG","03_39_WF_000042.JPG",3,39,"Pine","WF",4,"9/29/19","12/6/19","12/6/19","Whiskey Flats","Nothing Here"
"168",39640085,2,"HUMAN","03_39_WF_000043.JPG","03_39_WF_000044.JPG","03_39_WF_000045.JPG",3,39,"Pine","WF",4,"9/29/19","12/6/19","12/6/19","Whiskey Flats","Human"
"169",40303358,1,"NOTHINGHERE","04_12_BC_000001.JPG","04_12_BC_000002.JPG","04_12_BC_000003.JPG",4,12,"Deciduous","BC",4,"10/19/19","2/2/20","12/15/19","Beaver Creek","Nothing Here"
"170",40303361,2,"HUMAN","04_12_BC_000004.JPG","04_12_BC_000005.JPG","04_12_BC_000006.JPG",4,12,"Deciduous","BC",4,"10/19/19","2/2/20","12/15/19","Beaver Creek","Human"
"171",40303369,2,"SQUIRRELGRAY","04_12_BC_000007.JPG","04_12_BC_000008.JPG","04_12_BC_000009.JPG",4,12,"Deciduous","BC",4,"10/19/19","2/2/20","12/15/19","Beaver Creek","Gray Squirrel"
"172",40303372,2,"SQUIRRELGRAY","04_12_BC_000010.JPG","04_12_BC_000011.JPG","04_12_BC_000012.JPG",4,12,"Deciduous","BC",4,"10/19/19","2/2/20","12/15/19","Beaver Creek","Gray Squirrel"
"173",40303373,1,"SQUIRRELGRAY","04_12_BC_000013.JPG","04_12_BC_000014.JPG","04_12_BC_000015.JPG",4,12,"Deciduous","BC",4,"10/19/19","2/2/20","12/15/19","Beaver Creek","Gray Squirrel"
"174",40303374,1,"DEERWHITETAILED","04_12_BC_000016.JPG","04_12_BC_000017.JPG","04_12_BC_000018.JPG",4,12,"Deciduous","BC",4,"10/19/19","2/2/20","12/15/19","Beaver Creek","White-tailed Deer"
"175",40303375,1,"DEERWHITETAILED","04_12_BC_000019.JPG","04_12_BC_000020.JPG","04_12_BC_000021.JPG",4,12,"Deciduous","BC",4,"10/19/19","2/2/20","12/15/19","Beaver Creek","White-tailed Deer"
"176",40303376,1,"DEERWHITETAILED","04_12_BC_000022.JPG","04_12_BC_000023.JPG","04_12_BC_000024.JPG",4,12,"Deciduous","BC",4,"10/19/19","2/2/20","12/15/19","Beaver Creek","White-tailed Deer"
"177",40303377,1,"DEERWHITETAILED","04_12_BC_000025.JPG","04_12_BC_000026.JPG","04_12_BC_000027.JPG",4,12,"Deciduous","BC",4,"10/19/19","2/2/20","12/15/19","Beaver Creek","White-tailed Deer"
"178",40303378,1,"SQUIRRELGRAY","04_12_BC_000028.JPG","04_12_BC_000029.JPG","04_12_BC_000030.JPG",4,12,"Deciduous","BC",4,"10/19/19","2/2/20","12/15/19","Beaver Creek","Gray Squirrel"
"179",40303379,1,"SQUIRRELGRAY","04_12_BC_000031.JPG","04_12_BC_000032.JPG","04_12_BC_000033.JPG",4,12,"Deciduous","BC",4,"10/19/19","2/2/20","12/15/19","Beaver Creek","Gray Squirrel"
"180",40303382,1,"SQUIRRELGRAY","04_12_BC_000034.JPG","04_12_BC_000035.JPG","04_12_BC_000036.JPG",4,12,"Deciduous","BC",4,"10/19/19","2/2/20","12/15/19","Beaver Creek","Gray Squirrel"
"181",40303383,1,"SQUIRRELGRAY","04_12_BC_000037.JPG","04_12_BC_000038.JPG","04_12_BC_000039.JPG",4,12,"Deciduous","BC",4,"10/19/19","2/2/20","12/15/19","Beaver Creek","Gray Squirrel"
"182",40303384,1,"NOTHINGHERE","04_12_BC_000040.JPG","04_12_BC_000041.JPG","04_12_BC_000042.JPG",4,12,"Deciduous","BC",4,"10/19/19","2/2/20","12/15/19","Beaver Creek","Nothing Here"
"183",40303387,1,"DEERWHITETAILED","04_12_BC_000043.JPG","04_12_BC_000044.JPG","04_12_BC_000045.JPG",4,12,"Deciduous","BC",4,"10/19/19","2/2/20","12/15/19","Beaver Creek","White-tailed Deer"
"184",40303388,1,"DEERWHITETAILED","04_12_BC_000046.JPG","04_12_BC_000047.JPG","04_12_BC_000048.JPG",4,12,"Deciduous","BC",4,"10/19/19","2/2/20","12/15/19","Beaver Creek","White-tailed Deer"
"185",40303396,1,"SQUIRRELGRAY","04_12_BC_000049.JPG","04_12_BC_000050.JPG","04_12_BC_000051.JPG",4,12,"Deciduous","BC",4,"10/19/19","2/2/20","12/15/19","Beaver Creek","Gray Squirrel"
"186",40303407,1,"SQUIRRELGRAY","04_12_BC_000052.JPG","04_12_BC_000053.JPG","04_12_BC_000054.JPG",4,12,"Deciduous","BC",4,"10/19/19","2/2/20","12/15/19","Beaver Creek","Gray Squirrel"
"187",40303408,1,"OTHERSMALLMAMMAL","04_12_BC_000055.JPG","04_12_BC_000056.JPG","04_12_BC_000057.JPG",4,12,"Deciduous","BC",4,"10/19/19","2/2/20","12/15/19","Beaver Creek","Other Small Mammal"
"188",40303410,1,"SQUIRRELGRAY","04_12_BC_000058.JPG","04_12_BC_000059.JPG","04_12_BC_000060.JPG",4,12,"Deciduous","BC",4,"10/19/19","2/2/20","12/15/19","Beaver Creek","Gray Squirrel"
"189",40303412,1,"OTHERSMALLMAMMAL","04_12_BC_000061.JPG","04_12_BC_000062.JPG","04_12_BC_000063.JPG",4,12,"Deciduous","BC",4,"10/19/19","2/2/20","12/15/19","Beaver Creek","Other Small Mammal"
"190",40303413,1,"NOTHINGHERE","04_12_BC_000064.JPG","04_12_BC_000065.JPG","04_12_BC_000066.JPG",4,12,"Deciduous","BC",4,"10/19/19","2/2/20","12/15/19","Beaver Creek","Nothing Here"
"191",40303414,1,"RACCOON","04_12_BC_000067.JPG","04_12_BC_000068.JPG","04_12_BC_000069.JPG",4,12,"Deciduous","BC",4,"10/19/19","2/2/20","12/15/19","Beaver Creek","Raccoon"
"192",40303415,1,"SQUIRRELGRAY","04_12_BC_000070.JPG","04_12_BC_000071.JPG","04_12_BC_000072.JPG",4,12,"Deciduous","BC",4,"10/19/19","2/2/20","12/15/19","Beaver Creek","Gray Squirrel"
"193",40303419,1,"SQUIRRELGRAY","04_12_BC_000073.JPG","04_12_BC_000074.JPG","04_12_BC_000075.JPG",4,12,"Deciduous","BC",4,"10/19/19","2/2/20","12/15/19","Beaver Creek","Gray Squirrel"
"194",40303423,1,"RACCOON","04_12_BC_000076.JPG","04_12_BC_000077.JPG","04_12_BC_000078.JPG",4,12,"Deciduous","BC",4,"10/19/19","2/2/20","12/15/19","Beaver Creek","Raccoon"
"195",31428291,1,"NOTHINGHERE","04_26_WF_000001.JPG","04_26_WF_000002.JPG","04_26_WF_000003.JPG",4,26,"Pine","WF",1,"11/17/18","1/31/19","1/10/19","Whiskey Flats","Nothing Here"
"196",31428292,1,"NOTHINGHERE","04_26_WF_000004.JPG","04_26_WF_000005.JPG","04_26_WF_000006.JPG",4,26,"Pine","WF",1,"11/17/18","1/31/19","1/10/19","Whiskey Flats","Nothing Here"
"197",31428293,1,"NOTHINGHERE","04_26_WF_000007.JPG","04_26_WF_000008.JPG","04_26_WF_000009.JPG",4,26,"Pine","WF",1,"11/17/18","1/31/19","1/10/19","Whiskey Flats","Nothing Here"
"198",31428294,1,"NOTHINGHERE","04_26_WF_000010.JPG","04_26_WF_000011.JPG","04_26_WF_000012.JPG",4,26,"Pine","WF",1,"11/17/18","1/31/19","1/10/19","Whiskey Flats","Nothing Here"
"199",31428295,1,"TURKEY","04_26_WF_000013.JPG","04_26_WF_000014.JPG","04_26_WF_000015.JPG",4,26,"Pine","WF",1,"11/17/18","1/31/19","1/10/19","Whiskey Flats","Turkey"
"200",31428296,1,"NOTHINGHERE","04_26_WF_000016.JPG","04_26_WF_000017.JPG","04_26_WF_000018.JPG",4,26,"Pine","WF",1,"11/17/18","1/31/19","1/10/19","Whiskey Flats","Nothing Here"
"201",31428297,1,"DEERWHITETAILED","04_26_WF_000019.JPG","04_26_WF_000020.JPG","04_26_WF_000021.JPG",4,26,"Pine","WF",1,"11/17/18","1/31/19","1/10/19","Whiskey Flats","White-tailed Deer"
"202",31428298,1,"DEERWHITETAILED","04_26_WF_000022.JPG","04_26_WF_000023.JPG","04_26_WF_000024.JPG",4,26,"Pine","WF",1,"11/17/18","1/31/19","1/10/19","Whiskey Flats","White-tailed Deer"
"203",31428299,1,"DEERWHITETAILED","04_26_WF_000025.JPG","04_26_WF_000026.JPG","04_26_WF_000027.JPG",4,26,"Pine","WF",1,"11/17/18","1/31/19","1/10/19","Whiskey Flats","White-tailed Deer"
"204",31428300,1,"DEERWHITETAILED","04_26_WF_000028.JPG","04_26_WF_000029.JPG","04_26_WF_000030.JPG",4,26,"Pine","WF",1,"11/17/18","1/31/19","1/10/19","Whiskey Flats","White-tailed Deer"
"205",31428301,1,"COYOTE","04_26_WF_000031.JPG","04_26_WF_000032.JPG","04_26_WF_000033.JPG",4,26,"Pine","WF",1,"11/17/18","1/31/19","1/10/19","Whiskey Flats","Coyote"
"206",31428302,1,"DEERWHITETAILED","04_26_WF_000034.JPG","04_26_WF_000035.JPG","04_26_WF_000036.JPG",4,26,"Pine","WF",1,"11/17/18","1/31/19","1/10/19","Whiskey Flats","White-tailed Deer"
"207",31428303,1,"DOMESTICDOG","04_26_WF_000037.JPG","04_26_WF_000038.JPG","04_26_WF_000039.JPG",4,26,"Pine","WF",1,"11/17/18","1/31/19","1/10/19","Whiskey Flats","Domestic Dog"
"208",31428304,1,"COYOTE","04_26_WF_000040.JPG","04_26_WF_000041.JPG","04_26_WF_000042.JPG",4,26,"Pine","WF",1,"11/17/18","1/31/19","1/10/19","Whiskey Flats","Coyote"
"209",31428305,1,"HUMAN","04_26_WF_000043.JPG","04_26_WF_000044.JPG","04_26_WF_000045.JPG",4,26,"Pine","WF",1,"11/17/18","1/31/19","1/10/19","Whiskey Flats","Human"
"210",31428306,1,"COYOTE","04_26_WF_000046.JPG","04_26_WF_000047.JPG","04_26_WF_000048.JPG",4,26,"Pine","WF",1,"11/17/18","1/31/19","1/10/19","Whiskey Flats","Coyote"
"211",31428307,1,"NOTHINGHERE","04_26_WF_000049.JPG","04_26_WF_000050.JPG","04_26_WF_000051.JPG",4,26,"Pine","WF",1,"11/17/18","1/31/19","1/10/19","Whiskey Flats","Nothing Here"
"212",37156605,1,"NOTHINGHERE","04_36_WF_000001.JPG","04_36_WF_000002.JPG","04_36_WF_000003.JPG",4,36,"Pine","WF",2,"1/31/19","5/15/19","3/26/19","Whiskey Flats","Nothing Here"
"213",37156606,1,"NOTHINGHERE","04_36_WF_000004.JPG","04_36_WF_000005.JPG","04_36_WF_000006.JPG",4,36,"Pine","WF",2,"1/31/19","5/15/19","3/26/19","Whiskey Flats","Nothing Here"
"214",37156607,2,"NOTHINGHERE","04_36_WF_000007.JPG","04_36_WF_000008.JPG","04_36_WF_000009.JPG",4,36,"Pine","WF",2,"1/31/19","5/15/19","3/26/19","Whiskey Flats","Nothing Here"
"215",37156608,1,"NOTHINGHERE","04_36_WF_000010.JPG","04_36_WF_000011.JPG","04_36_WF_000012.JPG",4,36,"Pine","WF",2,"1/31/19","5/15/19","3/26/19","Whiskey Flats","Nothing Here"
"216",37156609,1,"NOTHINGHERE","04_36_WF_000013.JPG","04_36_WF_000014.JPG","04_36_WF_000015.JPG",4,36,"Pine","WF",2,"1/31/19","5/15/19","3/26/19","Whiskey Flats","Nothing Here"
"217",37156610,1,"NOTHINGHERE","04_36_WF_000016.JPG","04_36_WF_000017.JPG","04_36_WF_000018.JPG",4,36,"Pine","WF",2,"1/31/19","5/15/19","3/26/19","Whiskey Flats","Nothing Here"
"218",37156611,1,"DEERWHITETAILED","04_36_WF_000019.JPG","04_36_WF_000020.JPG","04_36_WF_000021.JPG",4,36,"Pine","WF",2,"1/31/19","5/15/19","3/26/19","Whiskey Flats","White-tailed Deer"
"219",37156612,1,"DEERWHITETAILED","04_36_WF_000022.JPG","04_36_WF_000023.JPG","04_36_WF_000024.JPG",4,36,"Pine","WF",2,"1/31/19","5/15/19","3/26/19","Whiskey Flats","White-tailed Deer"
"220",37156613,1,"DEERWHITETAILED","04_36_WF_000025.JPG","04_36_WF_000026.JPG","04_36_WF_000027.JPG",4,36,"Pine","WF",2,"1/31/19","5/15/19","3/26/19","Whiskey Flats","White-tailed Deer"
"221",37156614,1,"DEERWHITETAILED","04_36_WF_000028.JPG","04_36_WF_000029.JPG","04_36_WF_000030.JPG",4,36,"Pine","WF",2,"1/31/19","5/15/19","3/26/19","Whiskey Flats","White-tailed Deer"
"222",37156615,1,"DEERWHITETAILED","04_36_WF_000031.JPG","04_36_WF_000032.JPG","04_36_WF_000033.JPG",4,36,"Pine","WF",2,"1/31/19","5/15/19","3/26/19","Whiskey Flats","White-tailed Deer"
"223",37156616,2,"NOTHINGHERE","04_36_WF_000034.JPG","04_36_WF_000035.JPG","04_36_WF_000036.JPG",4,36,"Pine","WF",2,"1/31/19","5/15/19","3/26/19","Whiskey Flats","Nothing Here"
"224",37156617,1,"DEERWHITETAILED","04_36_WF_000037.JPG","04_36_WF_000038.JPG","04_36_WF_000039.JPG",4,36,"Pine","WF",2,"1/31/19","5/15/19","3/26/19","Whiskey Flats","White-tailed Deer"
"225",37156618,1,"DEERWHITETAILED","04_36_WF_000040.JPG","04_36_WF_000041.JPG","04_36_WF_000042.JPG",4,36,"Pine","WF",2,"1/31/19","5/15/19","3/26/19","Whiskey Flats","White-tailed Deer"
"226",37156619,1,"DEERWHITETAILED","04_36_WF_000043.JPG","04_36_WF_000044.JPG","04_36_WF_000045.JPG",4,36,"Pine","WF",2,"1/31/19","5/15/19","3/26/19","Whiskey Flats","White-tailed Deer"
"227",37156620,1,"DEERWHITETAILED","04_36_WF_000046.JPG","04_36_WF_000047.JPG","04_36_WF_000048.JPG",4,36,"Pine","WF",2,"1/31/19","5/15/19","3/26/19","Whiskey Flats","White-tailed Deer"
"228",37156621,1,"BLACKBEAR","04_36_WF_000049.JPG","04_36_WF_000050.JPG","04_36_WF_000051.JPG",4,36,"Pine","WF",2,"1/31/19","5/15/19","3/26/19","Whiskey Flats","Black Bear"
"229",37156622,1,"DEERWHITETAILED","04_36_WF_000052.JPG","04_36_WF_000053.JPG","04_36_WF_000054.JPG",4,36,"Pine","WF",2,"1/31/19","5/15/19","3/26/19","Whiskey Flats","White-tailed Deer"
"230",37156623,1,"SOMETHINGHERE","04_36_WF_000055.JPG","04_36_WF_000056.JPG","04_36_WF_000057.JPG",4,36,"Pine","WF",2,"1/31/19","5/15/19","3/26/19","Whiskey Flats","Something Here"
"231",37156624,1,"DEERWHITETAILED","04_36_WF_000058.JPG","04_36_WF_000059.JPG","04_36_WF_000060.JPG",4,36,"Pine","WF",2,"1/31/19","5/15/19","3/26/19","Whiskey Flats","White-tailed Deer"
"232",37156625,1,"DEERWHITETAILED","04_36_WF_000061.JPG","04_36_WF_000062.JPG","04_36_WF_000063.JPG",4,36,"Pine","WF",2,"1/31/19","5/15/19","3/26/19","Whiskey Flats","White-tailed Deer"
"233",37156626,1,"DEERWHITETAILED","04_36_WF_000064.JPG","04_36_WF_000065.JPG","04_36_WF_000066.JPG",4,36,"Pine","WF",2,"1/31/19","5/15/19","3/26/19","Whiskey Flats","White-tailed Deer"
"234",37156627,1,"DEERWHITETAILED","04_36_WF_000067.JPG","04_36_WF_000068.JPG","04_36_WF_000069.JPG",4,36,"Pine","WF",2,"1/31/19","5/15/19","3/26/19","Whiskey Flats","White-tailed Deer"
"235",37156628,1,"SOMETHINGHERE","04_36_WF_000070.JPG","04_36_WF_000071.JPG","04_36_WF_000072.JPG",4,36,"Pine","WF",2,"1/31/19","5/15/19","3/26/19","Whiskey Flats","Something Here"
"236",37156629,1,"DEERWHITETAILED","04_36_WF_000082.JPG","04_36_WF_000083.JPG",NA,4,36,"Pine","WF",2,"1/31/19","5/15/19","3/26/19","Whiskey Flats","White-tailed Deer"
"237",37156630,1,"DEERWHITETAILED","04_36_WF_000085.JPG","04_36_WF_000086.JPG",NA,4,36,"Pine","WF",2,"1/31/19","5/15/19","3/26/19","Whiskey Flats","White-tailed Deer"
"238",37156631,1,"FISHER","04_36_WF_000088.JPG","04_36_WF_000089.JPG",NA,4,36,"Pine","WF",2,"1/31/19","5/15/19","3/26/19","Whiskey Flats","Fisher"
"239",37156632,1,"FISHER","04_36_WF_000091.JPG","04_36_WF_000092.JPG","04_36_WF_000093.JPG",4,36,"Pine","WF",2,"1/31/19","5/15/19","3/26/19","Whiskey Flats","Fisher"
"240",37156633,1,"DEERWHITETAILED","04_36_WF_000097.JPG","04_36_WF_000098.JPG",NA,4,36,"Pine","WF",2,"1/31/19","5/15/19","3/26/19","Whiskey Flats","White-tailed Deer"
"241",37156634,1,"DEERWHITETAILED","04_36_WF_000100.JPG","04_36_WF_000101.JPG","04_36_WF_000102.JPG",4,36,"Pine","WF",2,"1/31/19","5/15/19","3/26/19","Whiskey Flats","White-tailed Deer"
"242",37156635,1,"DEERWHITETAILED","04_36_WF_000103.JPG","04_36_WF_000104.JPG","04_36_WF_000105.JPG",4,36,"Pine","WF",2,"1/31/19","5/15/19","3/26/19","Whiskey Flats","White-tailed Deer"
"243",37156636,1,"DEERWHITETAILED","04_36_WF_000106.JPG","04_36_WF_000107.JPG",NA,4,36,"Pine","WF",2,"1/31/19","5/15/19","3/26/19","Whiskey Flats","White-tailed Deer"
"244",37156637,1,"DEERWHITETAILED","04_36_WF_000109.JPG","04_36_WF_000110.JPG","04_36_WF_000111.JPG",4,36,"Pine","WF",2,"1/31/19","5/15/19","3/26/19","Whiskey Flats","White-tailed Deer"
"245",37156638,1,"DEERWHITETAILED","04_36_WF_000112.JPG","04_36_WF_000113.JPG","04_36_WF_000114.JPG",4,36,"Pine","WF",2,"1/31/19","5/15/19","3/26/19","Whiskey Flats","White-tailed Deer"
"246",37156639,2,"DEERWHITETAILED","04_36_WF_000115.JPG","04_36_WF_000116.JPG","04_36_WF_000117.JPG",4,36,"Pine","WF",2,"1/31/19","5/15/19","3/26/19","Whiskey Flats","White-tailed Deer"
"247",37156640,1,"DEERWHITETAILED","04_36_WF_000118.JPG","04_36_WF_000119.JPG","04_36_WF_000120.JPG",4,36,"Pine","WF",2,"1/31/19","5/15/19","3/26/19","Whiskey Flats","White-tailed Deer"
"248",37156641,1,"DEERWHITETAILED","04_36_WF_000121.JPG","04_36_WF_000122.JPG","04_36_WF_000123.JPG",4,36,"Pine","WF",2,"1/31/19","5/15/19","3/26/19","Whiskey Flats","White-tailed Deer"
"249",37156642,1,"NOTHINGHERE","04_36_WF_000124.JPG","04_36_WF_000125.JPG","04_36_WF_000126.JPG",4,36,"Pine","WF",2,"1/31/19","5/15/19","3/26/19","Whiskey Flats","Nothing Here"
"250",37156643,1,"FISHER","04_36_WF_000127.JPG","04_36_WF_000128.JPG","04_36_WF_000129.JPG",4,36,"Pine","WF",2,"1/31/19","5/15/19","3/26/19","Whiskey Flats","Fisher"
"251",37156644,2,"TURKEY","04_36_WF_000130.JPG","04_36_WF_000131.JPG","04_36_WF_000132.JPG",4,36,"Pine","WF",2,"1/31/19","5/15/19","3/26/19","Whiskey Flats","Turkey"
"252",37156645,1,"DEERWHITETAILED","04_36_WF_000133.JPG","04_36_WF_000134.JPG","04_36_WF_000135.JPG",4,36,"Pine","WF",2,"1/31/19","5/15/19","3/26/19","Whiskey Flats","White-tailed Deer"
"253",37156646,1,"DEERWHITETAILED","04_36_WF_000136.JPG","04_36_WF_000137.JPG","04_36_WF_000138.JPG",4,36,"Pine","WF",2,"1/31/19","5/15/19","3/26/19","Whiskey Flats","White-tailed Deer"
"254",37156647,1,"DEERWHITETAILED","04_36_WF_000139.JPG","04_36_WF_000140.JPG","04_36_WF_000141.JPG",4,36,"Pine","WF",2,"1/31/19","5/15/19","3/26/19","Whiskey Flats","White-tailed Deer"
"255",37156648,1,"NOTHINGHERE","04_36_WF_000142.JPG","04_36_WF_000143.JPG","04_36_WF_000144.JPG",4,36,"Pine","WF",2,"1/31/19","5/15/19","3/26/19","Whiskey Flats","Nothing Here"
"256",37156649,1,"DEERWHITETAILED","04_36_WF_000145.JPG","04_36_WF_000146.JPG","04_36_WF_000147.JPG",4,36,"Pine","WF",2,"1/31/19","5/15/19","3/26/19","Whiskey Flats","White-tailed Deer"
"257",39638712,1,"HUMAN","05_34_WF_000001.JPG","05_34_WF_000002.JPG","05_34_WF_000003.JPG",5,34,"Pine","WF",4,"9/29/19","12/6/19","12/6/19","Whiskey Flats","Human"
"258",39638713,1,"HUMAN","05_34_WF_000004.JPG","05_34_WF_000005.JPG","05_34_WF_000006.JPG",5,34,"Pine","WF",4,"9/29/19","12/6/19","12/6/19","Whiskey Flats","Human"
"259",39638718,1,"DEERWHITETAILED","05_34_WF_000007.JPG","05_34_WF_000008.JPG","05_34_WF_000009.JPG",5,34,"Pine","WF",4,"9/29/19","12/6/19","12/6/19","Whiskey Flats","White-tailed Deer"
"260",39638795,1,"RACCOON","05_34_WF_000010.JPG","05_34_WF_000011.JPG","05_34_WF_000012.JPG",5,34,"Pine","WF",4,"9/29/19","12/6/19","12/6/19","Whiskey Flats","Raccoon"
"261",39638860,1,"SOMETHINGHERE","05_34_WF_000013.JPG","05_34_WF_000014.JPG","05_34_WF_000015.JPG",5,34,"Pine","WF",4,"9/29/19","12/6/19","12/6/19","Whiskey Flats","Something Here"
"262",39638963,1,"RACCOON","05_34_WF_000016.JPG","05_34_WF_000017.JPG","05_34_WF_000018.JPG",5,34,"Pine","WF",4,"9/29/19","12/6/19","12/6/19","Whiskey Flats","Raccoon"
"263",39638997,1,"RACCOON","05_34_WF_000020.JPG","05_34_WF_000019.JPG","05_34_WF_000021.JPG",5,34,"Pine","WF",4,"9/29/19","12/6/19","12/6/19","Whiskey Flats","Raccoon"
"264",39639072,1,"TURKEY","05_34_WF_000022.JPG","05_34_WF_000023.JPG","05_34_WF_000024.JPG",5,34,"Pine","WF",4,"9/29/19","12/6/19","12/6/19","Whiskey Flats","Turkey"
"265",39639086,1,"TURKEY","05_34_WF_000025.JPG","05_34_WF_000026.JPG","05_34_WF_000027.JPG",5,34,"Pine","WF",4,"9/29/19","12/6/19","12/6/19","Whiskey Flats","Turkey"
"266",39639379,1,"DEERWHITETAILED","05_34_WF_000028.JPG","05_34_WF_000029.JPG","05_34_WF_000030.JPG",5,34,"Pine","WF",4,"9/29/19","12/6/19","12/6/19","Whiskey Flats","White-tailed Deer"
"267",39639464,1,"NOTHINGHERE","05_34_WF_000031.JPG","05_34_WF_000032.JPG","05_34_WF_000033.JPG",5,34,"Pine","WF",4,"9/29/19","12/6/19","12/6/19","Whiskey Flats","Nothing Here"
"268",39639590,1,"DEERWHITETAILED","05_34_WF_000034.JPG","05_34_WF_000036.JPG","05_34_WF_000035.JPG",5,34,"Pine","WF",4,"9/29/19","12/6/19","12/6/19","Whiskey Flats","White-tailed Deer"
"269",39639599,2,"NOTHINGHERE","05_34_WF_000037.JPG","05_34_WF_000038.JPG","05_34_WF_000039.JPG",5,34,"Pine","WF",4,"9/29/19","12/6/19","12/6/19","Whiskey Flats","Nothing Here"
"270",39639703,2,"DEERWHITETAILED","05_34_WF_000040.JPG","05_34_WF_000041.JPG","05_34_WF_000042.JPG",5,34,"Pine","WF",4,"9/29/19","12/6/19","12/6/19","Whiskey Flats","White-tailed Deer"
"271",39639704,1,"DEERWHITETAILED","05_34_WF_000043.JPG","05_34_WF_000044.JPG","05_34_WF_000045.JPG",5,34,"Pine","WF",4,"9/29/19","12/6/19","12/6/19","Whiskey Flats","White-tailed Deer"
"272",39639851,1,"DEERWHITETAILED","05_34_WF_000046.JPG","05_34_WF_000047.JPG","05_34_WF_000048.JPG",5,34,"Pine","WF",4,"9/29/19","12/6/19","12/6/19","Whiskey Flats","White-tailed Deer"
"273",39639905,1,"DEERWHITETAILED","05_34_WF_000050.JPG","05_34_WF_000049.JPG",NA,5,34,"Pine","WF",4,"9/29/19","12/6/19","12/6/19","Whiskey Flats","White-tailed Deer"
"274",39639943,1,"DEERWHITETAILED","05_34_WF_000052.JPG","05_34_WF_000053.JPG","05_34_WF_000054.JPG",5,34,"Pine","WF",4,"9/29/19","12/6/19","12/6/19","Whiskey Flats","White-tailed Deer"
"275",39639959,1,"DEERWHITETAILED","05_34_WF_000055.JPG","05_34_WF_000056.JPG","05_34_WF_000057.JPG",5,34,"Pine","WF",4,"9/29/19","12/6/19","12/6/19","Whiskey Flats","White-tailed Deer"
"276",39639968,2,"DEERWHITETAILED","05_34_WF_000058.JPG","05_34_WF_000059.JPG","05_34_WF_000060.JPG",5,34,"Pine","WF",4,"9/29/19","12/6/19","12/6/19","Whiskey Flats","White-tailed Deer"
"277",39639989,1,"HUMAN","05_34_WF_000062.JPG","05_34_WF_000061.JPG","05_34_WF_000063.JPG",5,34,"Pine","WF",4,"9/29/19","12/6/19","12/6/19","Whiskey Flats","Human"
"278",39640002,1,"DEERWHITETAILED","05_34_WF_000064.JPG","05_34_WF_000065.JPG","05_34_WF_000066.JPG",5,34,"Pine","WF",4,"9/29/19","12/6/19","12/6/19","Whiskey Flats","White-tailed Deer"
"279",39640023,1,"TURKEY","05_34_WF_000067.JPG","05_34_WF_000068.JPG","05_34_WF_000069.JPG",5,34,"Pine","WF",4,"9/29/19","12/6/19","12/6/19","Whiskey Flats","Turkey"
"280",39640078,1,"TURKEY","05_34_WF_000071.JPG","05_34_WF_000070.JPG","05_34_WF_000072.JPG",5,34,"Pine","WF",4,"9/29/19","12/6/19","12/6/19","Whiskey Flats","Turkey"
"281",39640086,1,"HUMAN","05_34_WF_000073.JPG","05_34_WF_000074.JPG","05_34_WF_000075.JPG",5,34,"Pine","WF",4,"9/29/19","12/6/19","12/6/19","Whiskey Flats","Human"
"282",37818930,1,"NOTHINGHERE","06_41_DON_05180001.JPG","06_41_DON_05180002.JPG","06_41_DON_05180003.JPG",6,41,"Deciduous","DON",3,"5/16/19","9/7/19","9/6/19","Donnerville","Nothing Here"
"283",37820161,1,"DEERWHITETAILED","06_41_DON_05210004.JPG","06_41_DON_05210005.JPG","06_41_DON_05210006.JPG",6,41,"Deciduous","DON",3,"5/16/19","9/7/19","9/6/19","Donnerville","White-tailed Deer"
"284",37820162,2,"DEERWHITETAILED","06_41_DON_05210007.JPG","06_41_DON_05210008.JPG","06_41_DON_05210009.JPG",6,41,"Deciduous","DON",3,"5/16/19","9/7/19","9/6/19","Donnerville","White-tailed Deer"
"285",37820164,2,"DEERWHITETAILED","06_41_DON_05210010.JPG","06_41_DON_05210011.JPG","06_41_DON_05210012.JPG",6,41,"Deciduous","DON",3,"5/16/19","9/7/19","9/6/19","Donnerville","White-tailed Deer"
"286",37820165,2,"DEERWHITETAILED","06_41_DON_05210013.JPG","06_41_DON_05210014.JPG","06_41_DON_05210015.JPG",6,41,"Deciduous","DON",3,"5/16/19","9/7/19","9/6/19","Donnerville","White-tailed Deer"
"287",37820166,1,"DEERWHITETAILED","06_41_DON_05210016.JPG","06_41_DON_05210017.JPG","06_41_DON_05210018.JPG",6,41,"Deciduous","DON",3,"5/16/19","9/7/19","9/6/19","Donnerville","White-tailed Deer"
"288",37820201,1,"FOXRED","06_41_DON_05210019.JPG","06_41_DON_05210020.JPG",NA,6,41,"Deciduous","DON",3,"5/16/19","9/7/19","9/6/19","Donnerville","Red Fox"
"289",37820245,1,"NOTHINGHERE","06_41_DON_05220022.JPG","06_41_DON_05220023.JPG","06_41_DON_05220024.JPG",6,41,"Deciduous","DON",3,"5/16/19","9/7/19","9/6/19","Donnerville","Nothing Here"
"290",37820259,1,"DEERWHITETAILED","06_41_DON_05220025.JPG","06_41_DON_05220026.JPG","06_41_DON_05220027.JPG",6,41,"Deciduous","DON",3,"5/16/19","9/7/19","9/6/19","Donnerville","White-tailed Deer"
"291",37820314,1,"COYOTE","06_41_DON_05240028.JPG","06_41_DON_05240029.JPG","06_41_DON_05240030.JPG",6,41,"Deciduous","DON",3,"5/16/19","9/7/19","9/6/19","Donnerville","Coyote"
"292",37820331,1,"DEERWHITETAILED","06_41_DON_05250031.JPG","06_41_DON_05250032.JPG","06_41_DON_05250033.JPG",6,41,"Deciduous","DON",3,"5/16/19","9/7/19","9/6/19","Donnerville","White-tailed Deer"
"293",37820365,1,"NOTHINGHERE","06_41_DON_05270034.JPG","06_41_DON_05270035.JPG","06_41_DON_05270036.JPG",6,41,"Deciduous","DON",3,"5/16/19","9/7/19","9/6/19","Donnerville","Nothing Here"
"294",37820380,1,"NOTHINGHERE","06_41_DON_05270043.JPG","06_41_DON_05270044.JPG",NA,6,41,"Deciduous","DON",3,"5/16/19","9/7/19","9/6/19","Donnerville","Nothing Here"
"295",37820385,1,"NOTHINGHERE","06_41_DON_05270046.JPG","06_41_DON_05270047.JPG","06_41_DON_05270048.JPG",6,41,"Deciduous","DON",3,"5/16/19","9/7/19","9/6/19","Donnerville","Nothing Here"
"296",37820421,2,"NOTHINGHERE","06_41_DON_05280052.JPG","06_41_DON_05280053.JPG","06_41_DON_05280054.JPG",6,41,"Deciduous","DON",3,"5/16/19","9/7/19","9/6/19","Donnerville","Nothing Here"
"297",37820449,1,"DEERWHITETAILED","06_41_DON_05300055.JPG","06_41_DON_05300056.JPG","06_41_DON_05300057.JPG",6,41,"Deciduous","DON",3,"5/16/19","9/7/19","9/6/19","Donnerville","White-tailed Deer"
"298",37820452,1,"DEERWHITETAILED","06_41_DON_05300058.JPG","06_41_DON_05300059.JPG","06_41_DON_05300060.JPG",6,41,"Deciduous","DON",3,"5/16/19","9/7/19","9/6/19","Donnerville","White-tailed Deer"
"299",37820453,2,"DEERWHITETAILED","06_41_DON_05300061.JPG","06_41_DON_05300062.JPG","06_41_DON_05300063.JPG",6,41,"Deciduous","DON",3,"5/16/19","9/7/19","9/6/19","Donnerville","White-tailed Deer"
"300",37820454,2,"DEERWHITETAILED","06_41_DON_05300064.JPG","06_41_DON_05300065.JPG","06_41_DON_05300066.JPG",6,41,"Deciduous","DON",3,"5/16/19","9/7/19","9/6/19","Donnerville","White-tailed Deer"
"301",37820455,2,"NOTHINGHERE","06_41_DON_05300067.JPG","06_41_DON_05300068.JPG","06_41_DON_05300069.JPG",6,41,"Deciduous","DON",3,"5/16/19","9/7/19","9/6/19","Donnerville","Nothing Here"
"302",37820457,1,"DEERWHITETAILED","06_41_DON_05300070.JPG","06_41_DON_05300071.JPG","06_41_DON_05300072.JPG",6,41,"Deciduous","DON",3,"5/16/19","9/7/19","9/6/19","Donnerville","White-tailed Deer"
"303",37820460,1,"DEERWHITETAILED","06_41_DON_05310073.JPG","06_41_DON_05310074.JPG","06_41_DON_05310075.JPG",6,41,"Deciduous","DON",3,"5/16/19","9/7/19","9/6/19","Donnerville","White-tailed Deer"
"304",37820499,1,"NOTHINGHERE","06_41_DON_06020076.JPG","06_41_DON_06020077.JPG","06_41_DON_06020078.JPG",6,41,"Deciduous","DON",3,"5/16/19","9/7/19","9/6/19","Donnerville","Nothing Here"
"305",37820524,1,"TURKEY","06_41_DON_06030079.JPG","06_41_DON_06030080.JPG","06_41_DON_06030081.JPG",6,41,"Deciduous","DON",3,"5/16/19","9/7/19","9/6/19","Donnerville","Turkey"
"306",37820590,1,"DEERWHITETAILED","06_41_DON_06040082.JPG","06_41_DON_06040083.JPG","06_41_DON_06040084.JPG",6,41,"Deciduous","DON",3,"5/16/19","9/7/19","9/6/19","Donnerville","White-tailed Deer"
"307",37820603,2,"SOMETHINGHERE","06_41_DON_06050085.JPG","06_41_DON_06050086.JPG","06_41_DON_06050087.JPG",6,41,"Deciduous","DON",3,"5/16/19","9/7/19","9/6/19","Donnerville","Something Here"
"308",37820732,2,"SOMETHINGHERE","06_41_DON_06080088.JPG","06_41_DON_06080089.JPG","06_41_DON_06080090.JPG",6,41,"Deciduous","DON",3,"5/16/19","9/7/19","9/6/19","Donnerville","Something Here"
"309",37820998,1,"DEERWHITETAILED","06_41_DON_06140091.JPG","06_41_DON_06140092.JPG","06_41_DON_06140093.JPG",6,41,"Deciduous","DON",3,"5/16/19","9/7/19","9/6/19","Donnerville","White-tailed Deer"
"310",37821000,2,"DEERWHITETAILED","06_41_DON_06140094.JPG","06_41_DON_06140095.JPG","06_41_DON_06140096.JPG",6,41,"Deciduous","DON",3,"5/16/19","9/7/19","9/6/19","Donnerville","White-tailed Deer"
"311",37821171,1,"DEERWHITETAILED","06_41_DON_06150097.JPG","06_41_DON_06150098.JPG","06_41_DON_06150099.JPG",6,41,"Deciduous","DON",3,"5/16/19","9/7/19","9/6/19","Donnerville","White-tailed Deer"
"312",37821202,1,"COYOTE","06_41_DON_06160100.JPG","06_41_DON_06160101.JPG","06_41_DON_06160102.JPG",6,41,"Deciduous","DON",3,"5/16/19","9/7/19","9/6/19","Donnerville","Coyote"
"313",37821358,1,"DEERWHITETAILED","06_41_DON_06200103.JPG","06_41_DON_06200104.JPG","06_41_DON_06200105.JPG",6,41,"Deciduous","DON",3,"5/16/19","9/7/19","9/6/19","Donnerville","White-tailed Deer"
"314",37821942,1,"DEERWHITETAILED","06_41_DON_06300109.JPG","06_41_DON_06300110.JPG","06_41_DON_06300111.JPG",6,41,"Deciduous","DON",3,"5/16/19","9/7/19","9/6/19","Donnerville","White-tailed Deer"
"315",37822056,1,"DEERWHITETAILED","06_41_DON_07060112.JPG","06_41_DON_07060113.JPG","06_41_DON_07060114.JPG",6,41,"Deciduous","DON",3,"5/16/19","9/7/19","9/6/19","Donnerville","White-tailed Deer"
"316",37822057,1,"DEERWHITETAILED","06_41_DON_07060115.JPG","06_41_DON_07060116.JPG","06_41_DON_07060117.JPG",6,41,"Deciduous","DON",3,"5/16/19","9/7/19","9/6/19","Donnerville","White-tailed Deer"
"317",37822106,1,"NOTHINGHERE","06_41_DON_07090118.JPG","06_41_DON_07090119.JPG","06_41_DON_07090120.JPG",6,41,"Deciduous","DON",3,"5/16/19","9/7/19","9/6/19","Donnerville","Nothing Here"
"318",37822110,2,"DEERWHITETAILED","06_41_DON_07090121.JPG","06_41_DON_07090122.JPG","06_41_DON_07090123.JPG",6,41,"Deciduous","DON",3,"5/16/19","9/7/19","9/6/19","Donnerville","White-tailed Deer"
"319",37822131,1,"NOTHINGHERE","06_41_DON_07090124.JPG","06_41_DON_07090125.JPG","06_41_DON_07090126.JPG",6,41,"Deciduous","DON",3,"5/16/19","9/7/19","9/6/19","Donnerville","Nothing Here"
"320",37822253,1,"DEERWHITETAILED","06_41_DON_07160127.JPG","06_41_DON_07160128.JPG","06_41_DON_07160129.JPG",6,41,"Deciduous","DON",3,"5/16/19","9/7/19","9/6/19","Donnerville","White-tailed Deer"
"321",37822308,1,"BLACKBEAR","06_41_DON_07190130.JPG","06_41_DON_07190131.JPG","06_41_DON_07190132.JPG",6,41,"Deciduous","DON",3,"5/16/19","9/7/19","9/6/19","Donnerville","Black Bear"
"322",37822322,1,"DEERWHITETAILED","06_41_DON_07190133.JPG","06_41_DON_07190134.JPG","06_41_DON_07190135.JPG",6,41,"Deciduous","DON",3,"5/16/19","9/7/19","9/6/19","Donnerville","White-tailed Deer"
"323",37822324,1,"DEERWHITETAILED","06_41_DON_07190136.JPG","06_41_DON_07190137.JPG","06_41_DON_07190138.JPG",6,41,"Deciduous","DON",3,"5/16/19","9/7/19","9/6/19","Donnerville","White-tailed Deer"
"324",37822325,1,"DEERWHITETAILED","06_41_DON_07190139.JPG","06_41_DON_07190140.JPG","06_41_DON_07190141.JPG",6,41,"Deciduous","DON",3,"5/16/19","9/7/19","9/6/19","Donnerville","White-tailed Deer"
"325",37822336,1,"DEERWHITETAILED","06_41_DON_07200142.JPG","06_41_DON_07200143.JPG","06_41_DON_07200144.JPG",6,41,"Deciduous","DON",3,"5/16/19","9/7/19","9/6/19","Donnerville","White-tailed Deer"
"326",37822368,2,"DEERWHITETAILED","06_41_DON_07220145.JPG","06_41_DON_07220146.JPG","06_41_DON_07220147.JPG",6,41,"Deciduous","DON",3,"5/16/19","9/7/19","9/6/19","Donnerville","White-tailed Deer"
"327",37822392,1,"DEERWHITETAILED","06_41_DON_07240148.JPG","06_41_DON_07240149.JPG","06_41_DON_07240150.JPG",6,41,"Deciduous","DON",3,"5/16/19","9/7/19","9/6/19","Donnerville","White-tailed Deer"
"328",37822428,1,"NOTHINGHERE","06_41_DON_07250151.JPG","06_41_DON_07250152.JPG","06_41_DON_07250153.JPG",6,41,"Deciduous","DON",3,"5/16/19","9/7/19","9/6/19","Donnerville","Nothing Here"
"329",37822746,1,"DEERWHITETAILED","06_41_DON_08070154.JPG","06_41_DON_08070155.JPG","06_41_DON_08070156.JPG",6,41,"Deciduous","DON",3,"5/16/19","9/7/19","9/6/19","Donnerville","White-tailed Deer"
"330",37822748,1,"NOTHINGHERE","06_41_DON_08070157.JPG","06_41_DON_08070158.JPG","06_41_DON_08070159.JPG",6,41,"Deciduous","DON",3,"5/16/19","9/7/19","9/6/19","Donnerville","Nothing Here"
"331",37822752,1,"DEERWHITETAILED","06_41_DON_08080160.JPG","06_41_DON_08080161.JPG","06_41_DON_08080162.JPG",6,41,"Deciduous","DON",3,"5/16/19","9/7/19","9/6/19","Donnerville","White-tailed Deer"
"332",37822954,1,"DEERWHITETAILED","06_41_DON_08130163.JPG","06_41_DON_08130164.JPG","06_41_DON_08130165.JPG",6,41,"Deciduous","DON",3,"5/16/19","9/7/19","9/6/19","Donnerville","White-tailed Deer"
"333",37822959,1,"DEERWHITETAILED","06_41_DON_08130166.JPG","06_41_DON_08130167.JPG","06_41_DON_08130168.JPG",6,41,"Deciduous","DON",3,"5/16/19","9/7/19","9/6/19","Donnerville","White-tailed Deer"
"334",37822961,1,"DEERWHITETAILED","06_41_DON_08130169.JPG","06_41_DON_08130170.JPG","06_41_DON_08130171.JPG",6,41,"Deciduous","DON",3,"5/16/19","9/7/19","9/6/19","Donnerville","White-tailed Deer"
"335",37823035,1,"DEERWHITETAILED","06_41_DON_08180172.JPG","06_41_DON_08180173.JPG","06_41_DON_08180174.JPG",6,41,"Deciduous","DON",3,"5/16/19","9/7/19","9/6/19","Donnerville","White-tailed Deer"
"336",37823276,1,"NOTHINGHERE","06_41_DON_08230175.JPG","06_41_DON_08230176.JPG","06_41_DON_08230177.JPG",6,41,"Deciduous","DON",3,"5/16/19","9/7/19","9/6/19","Donnerville","Nothing Here"
"337",37823289,1,"OTHERBIRD","06_41_DON_08240178.JPG","06_41_DON_08240179.JPG","06_41_DON_08240180.JPG",6,41,"Deciduous","DON",3,"5/16/19","9/7/19","9/6/19","Donnerville","Other Bird"
"338",37823428,1,"TURKEY","06_41_DON_08280181.JPG","06_41_DON_08280182.JPG","06_41_DON_08280183.JPG",6,41,"Deciduous","DON",3,"5/16/19","9/7/19","9/6/19","Donnerville","Turkey"
"339",37823429,1,"TURKEY","06_41_DON_08280184.JPG","06_41_DON_08280185.JPG","06_41_DON_08280186.JPG",6,41,"Deciduous","DON",3,"5/16/19","9/7/19","9/6/19","Donnerville","Turkey"
"340",37823431,1,"SOMETHINGHERE","06_41_DON_08280187.JPG","06_41_DON_08280188.JPG","06_41_DON_08280189.JPG",6,41,"Deciduous","DON",3,"5/16/19","9/7/19","9/6/19","Donnerville","Something Here"
"341",37823432,1,"SOMETHINGHERE","06_41_DON_08280190.JPG","06_41_DON_08280191.JPG","06_41_DON_08280192.JPG",6,41,"Deciduous","DON",3,"5/16/19","9/7/19","9/6/19","Donnerville","Something Here"
"342",37823433,1,"NOTHINGHERE","06_41_DON_08280193.JPG","06_41_DON_08280194.JPG","06_41_DON_08280195.JPG",6,41,"Deciduous","DON",3,"5/16/19","9/7/19","9/6/19","Donnerville","Nothing Here"
"343",37823435,1,"TURKEY","06_41_DON_08280196.JPG","06_41_DON_08280197.JPG","06_41_DON_08280198.JPG",6,41,"Deciduous","DON",3,"5/16/19","9/7/19","9/6/19","Donnerville","Turkey"
"344",37823458,2,"NOTHINGHERE","06_41_DON_08290199.JPG","06_41_DON_08290200.JPG","06_41_DON_08290201.JPG",6,41,"Deciduous","DON",3,"5/16/19","9/7/19","9/6/19","Donnerville","Nothing Here"
"345",37823657,1,"NOTHINGHERE","06_41_DON_08310202.JPG","06_41_DON_08310203.JPG","06_41_DON_08310204.JPG",6,41,"Deciduous","DON",3,"5/16/19","9/7/19","9/6/19","Donnerville","Nothing Here"
"346",37823658,2,"NOTHINGHERE","06_41_DON_08310205.JPG","06_41_DON_08310206.JPG","06_41_DON_08310207.JPG",6,41,"Deciduous","DON",3,"5/16/19","9/7/19","9/6/19","Donnerville","Nothing Here"
"347",37823716,1,"DEERWHITETAILED","06_41_DON_08310208.JPG","06_41_DON_08310209.JPG","06_41_DON_08310210.JPG",6,41,"Deciduous","DON",3,"5/16/19","9/7/19","9/6/19","Donnerville","White-tailed Deer"
"348",37823979,1,"DEERWHITETAILED","06_41_DON_09060211.JPG","06_41_DON_09060212.JPG","06_41_DON_09060213.JPG",6,41,"Deciduous","DON",3,"5/16/19","9/7/19","9/6/19","Donnerville","White-tailed Deer"
"349",37818750,1,"NOTHINGHERE","07_09_DON_000334.JPG","07_09_DON_000335.JPG",NA,7,9,"Deciduous","DON",3,"5/16/19","9/7/19","5/17/19","Donnerville","Nothing Here"
"350",37818752,1,"NOTHINGHERE","07_09_DON_000337.JPG","07_09_DON_000338.JPG",NA,7,9,"Deciduous","DON",3,"5/16/19","9/7/19","5/17/19","Donnerville","Nothing Here"
"351",37818760,1,"NOTHINGHERE","07_09_DON_000355.JPG","07_09_DON_000356.JPG","07_09_DON_000357.JPG",7,9,"Deciduous","DON",3,"5/16/19","9/7/19","5/17/19","Donnerville","Nothing Here"
"352",37818761,1,"NOTHINGHERE","07_09_DON_000358.JPG","07_09_DON_000359.JPG",NA,7,9,"Deciduous","DON",3,"5/16/19","9/7/19","5/17/19","Donnerville","Nothing Here"
"353",37818762,1,"NOTHINGHERE","07_09_DON_000361.JPG","07_09_DON_000362.JPG",NA,7,9,"Deciduous","DON",3,"5/16/19","9/7/19","5/17/19","Donnerville","Nothing Here"
"354",37818764,1,"NOTHINGHERE","07_09_DON_000364.JPG","07_09_DON_000365.JPG","07_09_DON_000366.JPG",7,9,"Deciduous","DON",3,"5/16/19","9/7/19","5/17/19","Donnerville","Nothing Here"
"355",37818765,2,"NOTHINGHERE","07_09_DON_000367.JPG","07_09_DON_000368.JPG","07_09_DON_000369.JPG",7,9,"Deciduous","DON",3,"5/16/19","9/7/19","5/17/19","Donnerville","Nothing Here"
"356",37818767,1,"NOTHINGHERE","07_09_DON_000370.JPG","07_09_DON_000371.JPG","07_09_DON_000372.JPG",7,9,"Deciduous","DON",3,"5/16/19","9/7/19","5/17/19","Donnerville","Nothing Here"
"357",37818768,1,"NOTHINGHERE","07_09_DON_000373.JPG","07_09_DON_000374.JPG","07_09_DON_000375.JPG",7,9,"Deciduous","DON",3,"5/16/19","9/7/19","5/17/19","Donnerville","Nothing Here"
"358",37818770,1,"NOTHINGHERE","07_09_DON_000376.JPG","07_09_DON_000377.JPG","07_09_DON_000378.JPG",7,9,"Deciduous","DON",3,"5/16/19","9/7/19","5/17/19","Donnerville","Nothing Here"
"359",37818771,1,"NOTHINGHERE","07_09_DON_000379.JPG","07_09_DON_000380.JPG","07_09_DON_000381.JPG",7,9,"Deciduous","DON",3,"5/16/19","9/7/19","5/17/19","Donnerville","Nothing Here"
"360",37818773,1,"NOTHINGHERE","07_09_DON_000385.JPG","07_09_DON_000386.JPG","07_09_DON_000387.JPG",7,9,"Deciduous","DON",3,"5/16/19","9/7/19","5/17/19","Donnerville","Nothing Here"
"361",37818774,1,"NOTHINGHERE","07_09_DON_000388.JPG","07_09_DON_000389.JPG","07_09_DON_000390.JPG",7,9,"Deciduous","DON",3,"5/16/19","9/7/19","5/17/19","Donnerville","Nothing Here"
"362",37818775,1,"NOTHINGHERE","07_09_DON_000391.JPG","07_09_DON_000392.JPG","07_09_DON_000393.JPG",7,9,"Deciduous","DON",3,"5/16/19","9/7/19","5/17/19","Donnerville","Nothing Here"
"363",37818778,1,"NOTHINGHERE","07_09_DON_000397.JPG","07_09_DON_000398.JPG","07_09_DON_000399.JPG",7,9,"Deciduous","DON",3,"5/16/19","9/7/19","5/17/19","Donnerville","Nothing Here"
"364",37818782,1,"NOTHINGHERE","07_09_DON_000409.JPG","07_09_DON_000410.JPG",NA,7,9,"Deciduous","DON",3,"5/16/19","9/7/19","5/17/19","Donnerville","Nothing Here"
"365",37818784,1,"NOTHINGHERE","07_09_DON_000412.JPG","07_09_DON_000413.JPG","07_09_DON_000414.JPG",7,9,"Deciduous","DON",3,"5/16/19","9/7/19","5/17/19","Donnerville","Nothing Here"
"366",37818785,1,"NOTHINGHERE","07_09_DON_000415.JPG","07_09_DON_000416.JPG","07_09_DON_000417.JPG",7,9,"Deciduous","DON",3,"5/16/19","9/7/19","5/17/19","Donnerville","Nothing Here"
"367",37818786,1,"NOTHINGHERE","07_09_DON_000418.JPG","07_09_DON_000419.JPG","07_09_DON_000420.JPG",7,9,"Deciduous","DON",3,"5/16/19","9/7/19","5/17/19","Donnerville","Nothing Here"
"368",37818787,1,"NOTHINGHERE","07_09_DON_000421.JPG","07_09_DON_000422.JPG",NA,7,9,"Deciduous","DON",3,"5/16/19","9/7/19","5/17/19","Donnerville","Nothing Here"
"369",37818789,1,"NOTHINGHERE","07_09_DON_000430.JPG","07_09_DON_000431.JPG",NA,7,9,"Deciduous","DON",3,"5/16/19","9/7/19","5/17/19","Donnerville","Nothing Here"
"370",37818791,1,"NOTHINGHERE","07_09_DON_000433.JPG","07_09_DON_000434.JPG","07_09_DON_000435.JPG",7,9,"Deciduous","DON",3,"5/16/19","9/7/19","5/17/19","Donnerville","Nothing Here"
"371",37818792,1,"NOTHINGHERE","07_09_DON_000436.JPG","07_09_DON_000437.JPG","07_09_DON_000438.JPG",7,9,"Deciduous","DON",3,"5/16/19","9/7/19","5/17/19","Donnerville","Nothing Here"
"372",37818795,1,"NOTHINGHERE","07_09_DON_000445.JPG","07_09_DON_000446.JPG",NA,7,9,"Deciduous","DON",3,"5/16/19","9/7/19","5/17/19","Donnerville","Nothing Here"
"373",37818797,1,"NOTHINGHERE","07_09_DON_000448.JPG","07_09_DON_000449.JPG","07_09_DON_000450.JPG",7,9,"Deciduous","DON",3,"5/16/19","9/7/19","5/17/19","Donnerville","Nothing Here"
"374",37818798,1,"NOTHINGHERE","07_09_DON_000451.JPG","07_09_DON_000452.JPG","07_09_DON_000453.JPG",7,9,"Deciduous","DON",3,"5/16/19","9/7/19","5/17/19","Donnerville","Nothing Here"
"375",37818799,1,"NOTHINGHERE","07_09_DON_000454.JPG","07_09_DON_000455.JPG",NA,7,9,"Deciduous","DON",3,"5/16/19","9/7/19","5/17/19","Donnerville","Nothing Here"
"376",37818800,1,"NOTHINGHERE","07_09_DON_000457.JPG","07_09_DON_000458.JPG","07_09_DON_000459.JPG",7,9,"Deciduous","DON",3,"5/16/19","9/7/19","5/17/19","Donnerville","Nothing Here"
"377",37818804,1,"NOTHINGHERE","07_09_DON_000466.JPG","07_09_DON_000467.JPG","07_09_DON_000468.JPG",7,9,"Deciduous","DON",3,"5/16/19","9/7/19","5/17/19","Donnerville","Nothing Here"
"378",37818805,1,"NOTHINGHERE","07_09_DON_000469.JPG","07_09_DON_000470.JPG","07_09_DON_000471.JPG",7,9,"Deciduous","DON",3,"5/16/19","9/7/19","5/17/19","Donnerville","Nothing Here"
"379",37818808,1,"NOTHINGHERE","07_09_DON_000475.JPG","07_09_DON_000476.JPG","07_09_DON_000477.JPG",7,9,"Deciduous","DON",3,"5/16/19","9/7/19","5/17/19","Donnerville","Nothing Here"
"380",37818809,1,"NOTHINGHERE","07_09_DON_000478.JPG","07_09_DON_000479.JPG","07_09_DON_000480.JPG",7,9,"Deciduous","DON",3,"5/16/19","9/7/19","5/17/19","Donnerville","Nothing Here"
"381",37818810,1,"NOTHINGHERE","07_09_DON_000481.JPG","07_09_DON_000482.JPG","07_09_DON_000483.JPG",7,9,"Deciduous","DON",3,"5/16/19","9/7/19","5/17/19","Donnerville","Nothing Here"
"382",37818811,1,"NOTHINGHERE","07_09_DON_000484.JPG","07_09_DON_000485.JPG","07_09_DON_000486.JPG",7,9,"Deciduous","DON",3,"5/16/19","9/7/19","5/17/19","Donnerville","Nothing Here"
"383",37818814,1,"NOTHINGHERE","07_09_DON_000490.JPG","07_09_DON_000491.JPG","07_09_DON_000492.JPG",7,9,"Deciduous","DON",3,"5/16/19","9/7/19","5/17/19","Donnerville","Nothing Here"
"384",37818815,1,"NOTHINGHERE","07_09_DON_000493.JPG","07_09_DON_000494.JPG","07_09_DON_000495.JPG",7,9,"Deciduous","DON",3,"5/16/19","9/7/19","5/17/19","Donnerville","Nothing Here"
"385",37818817,1,"NOTHINGHERE","07_09_DON_000496.JPG","07_09_DON_000497.JPG","07_09_DON_000498.JPG",7,9,"Deciduous","DON",3,"5/16/19","9/7/19","5/17/19","Donnerville","Nothing Here"
"386",37818818,1,"NOTHINGHERE","07_09_DON_000499.JPG","07_09_DON_000500.JPG","07_09_DON_000501.JPG",7,9,"Deciduous","DON",3,"5/16/19","9/7/19","5/17/19","Donnerville","Nothing Here"
"387",37818821,1,"NOTHINGHERE","07_09_DON_000505.JPG","07_09_DON_000506.JPG","07_09_DON_000507.JPG",7,9,"Deciduous","DON",3,"5/16/19","9/7/19","5/17/19","Donnerville","Nothing Here"
"388",37818822,2,"NOTHINGHERE","07_09_DON_000508.JPG","07_09_DON_000509.JPG","07_09_DON_000510.JPG",7,9,"Deciduous","DON",3,"5/16/19","9/7/19","5/17/19","Donnerville","Nothing Here"
"389",37818824,1,"NOTHINGHERE","07_09_DON_000511.JPG","07_09_DON_000512.JPG","07_09_DON_000513.JPG",7,9,"Deciduous","DON",3,"5/16/19","9/7/19","5/17/19","Donnerville","Nothing Here"
"390",37818825,1,"NOTHINGHERE","07_09_DON_000514.JPG","07_09_DON_000515.JPG","07_09_DON_000516.JPG",7,9,"Deciduous","DON",3,"5/16/19","9/7/19","5/17/19","Donnerville","Nothing Here"
"391",37818827,1,"NOTHINGHERE","07_09_DON_000517.JPG","07_09_DON_000518.JPG",NA,7,9,"Deciduous","DON",3,"5/16/19","9/7/19","5/17/19","Donnerville","Nothing Here"
"392",37818828,1,"NOTHINGHERE","07_09_DON_000523.JPG","07_09_DON_000524.JPG","07_09_DON_000525.JPG",7,9,"Deciduous","DON",3,"5/16/19","9/7/19","5/17/19","Donnerville","Nothing Here"
"393",37818829,1,"NOTHINGHERE","07_09_DON_000526.JPG","07_09_DON_000527.JPG","07_09_DON_000528.JPG",7,9,"Deciduous","DON",3,"5/16/19","9/7/19","5/17/19","Donnerville","Nothing Here"
"394",37818833,1,"NOTHINGHERE","07_09_DON_000529.JPG","07_09_DON_000531.JPG","07_09_DON_000530.JPG",7,9,"Deciduous","DON",3,"5/16/19","9/7/19","5/17/19","Donnerville","Nothing Here"
"395",37818835,1,"NOTHINGHERE","07_09_DON_000532.JPG","07_09_DON_000533.JPG","07_09_DON_000534.JPG",7,9,"Deciduous","DON",3,"5/16/19","9/7/19","5/17/19","Donnerville","Nothing Here"
"396",37818839,1,"NOTHINGHERE","07_09_DON_000535.JPG","07_09_DON_000536.JPG",NA,7,9,"Deciduous","DON",3,"5/16/19","9/7/19","5/17/19","Donnerville","Nothing Here"
"397",37818840,1,"NOTHINGHERE","07_09_DON_000538.JPG","07_09_DON_000539.JPG","07_09_DON_000540.JPG",7,9,"Deciduous","DON",3,"5/16/19","9/7/19","5/17/19","Donnerville","Nothing Here"
"398",37818841,1,"NOTHINGHERE","07_09_DON_000541.JPG","07_09_DON_000542.JPG","07_09_DON_000543.JPG",7,9,"Deciduous","DON",3,"5/16/19","9/7/19","5/17/19","Donnerville","Nothing Here"
"399",37818848,1,"NOTHINGHERE","07_09_DON_000544.JPG","07_09_DON_000545.JPG","07_09_DON_000546.JPG",7,9,"Deciduous","DON",3,"5/16/19","9/7/19","5/17/19","Donnerville","Nothing Here"
"400",37818854,1,"NOTHINGHERE","07_09_DON_000547.JPG","07_09_DON_000548.JPG","07_09_DON_000549.JPG",7,9,"Deciduous","DON",3,"5/16/19","9/7/19","5/17/19","Donnerville","Nothing Here"
"401",37818901,1,"NOTHINGHERE","07_09_DON_000553.JPG","07_09_DON_000554.JPG","07_09_DON_000555.JPG",7,9,"Deciduous","DON",3,"5/16/19","9/7/19","5/17/19","Donnerville","Nothing Here"
"402",37818906,1,"NOTHINGHERE","07_09_DON_000562.JPG","07_09_DON_000563.JPG","07_09_DON_000564.JPG",7,9,"Deciduous","DON",3,"5/16/19","9/7/19","5/17/19","Donnerville","Nothing Here"
"403",37818908,1,"NOTHINGHERE","07_09_DON_000565.JPG","07_09_DON_000566.JPG","07_09_DON_000567.JPG",7,9,"Deciduous","DON",3,"5/16/19","9/7/19","5/17/19","Donnerville","Nothing Here"
"404",39638644,2,"DOMESTICDOG","07_42_WHIP_000001.JPG","07_42_WHIP_000003.JPG","07_42_WHIP_000002.JPG",7,42,"Pine","WHIP",4,"9/27/19","11/12/19","11/11/19","Whippoorwill Corners","Domestic Dog"
"405",39638644,2,"HUMAN","07_42_WHIP_000001.JPG","07_42_WHIP_000003.JPG","07_42_WHIP_000002.JPG",7,42,"Pine","WHIP",4,"9/27/19","11/12/19","11/11/19","Whippoorwill Corners","Human"
"406",39638645,1,"DOMESTICDOG","07_42_WHIP_000004.JPG","07_42_WHIP_000005.JPG","07_42_WHIP_000006.JPG",7,42,"Pine","WHIP",4,"9/27/19","11/12/19","11/11/19","Whippoorwill Corners","Domestic Dog"
"407",39638646,2,"DOMESTICDOG","07_42_WHIP_000007.JPG","07_42_WHIP_000008.JPG","07_42_WHIP_000009.JPG",7,42,"Pine","WHIP",4,"9/27/19","11/12/19","11/11/19","Whippoorwill Corners","Domestic Dog"
"408",39638646,2,"HUMAN","07_42_WHIP_000007.JPG","07_42_WHIP_000008.JPG","07_42_WHIP_000009.JPG",7,42,"Pine","WHIP",4,"9/27/19","11/12/19","11/11/19","Whippoorwill Corners","Human"
"409",39638647,1,"DOMESTICDOG","07_42_WHIP_000010.JPG","07_42_WHIP_000012.JPG","07_42_WHIP_000011.JPG",7,42,"Pine","WHIP",4,"9/27/19","11/12/19","11/11/19","Whippoorwill Corners","Domestic Dog"
"410",39638648,1,"DOMESTICDOG","07_42_WHIP_000013.JPG","07_42_WHIP_000014.JPG","07_42_WHIP_000015.JPG",7,42,"Pine","WHIP",4,"9/27/19","11/12/19","11/11/19","Whippoorwill Corners","Domestic Dog"
"411",39638649,2,"DOMESTICDOG","07_42_WHIP_000016.JPG","07_42_WHIP_000017.JPG","07_42_WHIP_000018.JPG",7,42,"Pine","WHIP",4,"9/27/19","11/12/19","11/11/19","Whippoorwill Corners","Domestic Dog"
"412",39638650,1,"HUMAN","07_42_WHIP_000019.JPG","07_42_WHIP_000020.JPG","07_42_WHIP_000021.JPG",7,42,"Pine","WHIP",4,"9/27/19","11/12/19","11/11/19","Whippoorwill Corners","Human"
"413",39638654,2,"DOMESTICDOG","07_42_WHIP_000022.JPG","07_42_WHIP_000023.JPG","07_42_WHIP_000024.JPG",7,42,"Pine","WHIP",4,"9/27/19","11/12/19","11/11/19","Whippoorwill Corners","Domestic Dog"
"414",39638654,2,"HUMAN","07_42_WHIP_000022.JPG","07_42_WHIP_000023.JPG","07_42_WHIP_000024.JPG",7,42,"Pine","WHIP",4,"9/27/19","11/12/19","11/11/19","Whippoorwill Corners","Human"
"415",39638670,1,"PORCUPINE","07_42_WHIP_000025.JPG","07_42_WHIP_000026.JPG","07_42_WHIP_000027.JPG",7,42,"Pine","WHIP",4,"9/27/19","11/12/19","11/11/19","Whippoorwill Corners","Porcupine"
"416",39638702,1,"NOTHINGHERE","07_42_WHIP_000031.JPG","07_42_WHIP_000033.JPG","07_42_WHIP_000032.JPG",7,42,"Pine","WHIP",4,"9/27/19","11/12/19","11/11/19","Whippoorwill Corners","Nothing Here"
"417",39638705,1,"CHIPMUNK","07_42_WHIP_000034.JPG","07_42_WHIP_000035.JPG","07_42_WHIP_000036.JPG",7,42,"Pine","WHIP",4,"9/27/19","11/12/19","11/11/19","Whippoorwill Corners","Chipmunk"
"418",39638715,1,"FISHER","07_42_WHIP_000037.JPG","07_42_WHIP_000038.JPG","07_42_WHIP_000039.JPG",7,42,"Pine","WHIP",4,"9/27/19","11/12/19","11/11/19","Whippoorwill Corners","Fisher"
"419",39638724,1,"DEERWHITETAILED","07_42_WHIP_000040.JPG","07_42_WHIP_000041.JPG","07_42_WHIP_000042.JPG",7,42,"Pine","WHIP",4,"9/27/19","11/12/19","11/11/19","Whippoorwill Corners","White-tailed Deer"
"420",39638725,2,"NOTHINGHERE","07_42_WHIP_000043.JPG","07_42_WHIP_000044.JPG","07_42_WHIP_000045.JPG",7,42,"Pine","WHIP",4,"9/27/19","11/12/19","11/11/19","Whippoorwill Corners","Nothing Here"
"421",39638729,1,"NOTHINGHERE","07_42_WHIP_000046.JPG","07_42_WHIP_000047.JPG","07_42_WHIP_000048.JPG",7,42,"Pine","WHIP",4,"9/27/19","11/12/19","11/11/19","Whippoorwill Corners","Nothing Here"
"422",39638781,1,"NOTHINGHERE","07_42_WHIP_000049.JPG","07_42_WHIP_000050.JPG","07_42_WHIP_000051.JPG",7,42,"Pine","WHIP",4,"9/27/19","11/12/19","11/11/19","Whippoorwill Corners","Nothing Here"
"423",39638787,1,"COYOTE","07_42_WHIP_000052.JPG","07_42_WHIP_000053.JPG","07_42_WHIP_000054.JPG",7,42,"Pine","WHIP",4,"9/27/19","11/12/19","11/11/19","Whippoorwill Corners","Coyote"
"424",39638789,2,"CHIPMUNK","07_42_WHIP_000056.JPG","07_42_WHIP_000055.JPG","07_42_WHIP_000057.JPG",7,42,"Pine","WHIP",4,"9/27/19","11/12/19","11/11/19","Whippoorwill Corners","Chipmunk"
"425",39638790,1,"DEERWHITETAILED","07_42_WHIP_000058.JPG","07_42_WHIP_000059.JPG","07_42_WHIP_000060.JPG",7,42,"Pine","WHIP",4,"9/27/19","11/12/19","11/11/19","Whippoorwill Corners","White-tailed Deer"
"426",39638793,1,"RACCOON","07_42_WHIP_000061.JPG","07_42_WHIP_000063.JPG","07_42_WHIP_000062.JPG",7,42,"Pine","WHIP",4,"9/27/19","11/12/19","11/11/19","Whippoorwill Corners","Raccoon"
"427",39638822,2,"SQUIRRELGRAY","07_42_WHIP_000064.JPG","07_42_WHIP_000065.JPG","07_42_WHIP_000066.JPG",7,42,"Pine","WHIP",4,"9/27/19","11/12/19","11/11/19","Whippoorwill Corners","Gray Squirrel"
"428",39638827,1,"SQUIRRELGRAY","07_42_WHIP_000067.JPG","07_42_WHIP_000068.JPG","07_42_WHIP_000069.JPG",7,42,"Pine","WHIP",4,"9/27/19","11/12/19","11/11/19","Whippoorwill Corners","Gray Squirrel"
"429",39638832,1,"DEERWHITETAILED","07_42_WHIP_000070.JPG","07_42_WHIP_000071.JPG","07_42_WHIP_000072.JPG",7,42,"Pine","WHIP",4,"9/27/19","11/12/19","11/11/19","Whippoorwill Corners","White-tailed Deer"
"430",39638886,1,"NOTHINGHERE","07_42_WHIP_000073.JPG","07_42_WHIP_000074.JPG","07_42_WHIP_000075.JPG",7,42,"Pine","WHIP",4,"9/27/19","11/12/19","11/11/19","Whippoorwill Corners","Nothing Here"
"431",39638896,2,"OTHERSMALLMAMMAL","07_42_WHIP_000076.JPG","07_42_WHIP_000077.JPG","07_42_WHIP_000078.JPG",7,42,"Pine","WHIP",4,"9/27/19","11/12/19","11/11/19","Whippoorwill Corners","Other Small Mammal"
"432",39638905,2,"SQUIRRELGRAY","07_42_WHIP_000079.JPG","07_42_WHIP_000080.JPG","07_42_WHIP_000081.JPG",7,42,"Pine","WHIP",4,"9/27/19","11/12/19","11/11/19","Whippoorwill Corners","Gray Squirrel"
"433",39638907,1,"SQUIRRELGRAY","07_42_WHIP_000082.JPG","07_42_WHIP_000083.JPG","07_42_WHIP_000084.JPG",7,42,"Pine","WHIP",4,"9/27/19","11/12/19","11/11/19","Whippoorwill Corners","Gray Squirrel"
"434",39638923,1,"RACCOON","07_42_WHIP_000085.JPG","07_42_WHIP_000086.JPG","07_42_WHIP_000087.JPG",7,42,"Pine","WHIP",4,"9/27/19","11/12/19","11/11/19","Whippoorwill Corners","Raccoon"
"435",39638941,2,"CHIPMUNK","07_42_WHIP_000088.JPG","07_42_WHIP_000089.JPG","07_42_WHIP_000090.JPG",7,42,"Pine","WHIP",4,"9/27/19","11/12/19","11/11/19","Whippoorwill Corners","Chipmunk"
"436",39638942,2,"NOTHINGHERE","07_42_WHIP_000091.JPG","07_42_WHIP_000092.JPG","07_42_WHIP_000093.JPG",7,42,"Pine","WHIP",4,"9/27/19","11/12/19","11/11/19","Whippoorwill Corners","Nothing Here"
"437",39638943,2,"SQUIRRELGRAY","07_42_WHIP_000094.JPG","07_42_WHIP_000095.JPG","07_42_WHIP_000096.JPG",7,42,"Pine","WHIP",4,"9/27/19","11/12/19","11/11/19","Whippoorwill Corners","Gray Squirrel"
"438",39638945,1,"SQUIRRELGRAY","07_42_WHIP_000097.JPG","07_42_WHIP_000098.JPG","07_42_WHIP_000099.JPG",7,42,"Pine","WHIP",4,"9/27/19","11/12/19","11/11/19","Whippoorwill Corners","Gray Squirrel"
"439",39638946,1,"SQUIRRELGRAY","07_42_WHIP_000100.JPG","07_42_WHIP_000101.JPG","07_42_WHIP_000102.JPG",7,42,"Pine","WHIP",4,"9/27/19","11/12/19","11/11/19","Whippoorwill Corners","Gray Squirrel"
"440",39638956,1,"TURKEY","07_42_WHIP_000103.JPG","07_42_WHIP_000104.JPG","07_42_WHIP_000105.JPG",7,42,"Pine","WHIP",4,"9/27/19","11/12/19","11/11/19","Whippoorwill Corners","Turkey"
"441",39638960,1,"COYOTE","07_42_WHIP_000106.JPG","07_42_WHIP_000107.JPG","07_42_WHIP_000108.JPG",7,42,"Pine","WHIP",4,"9/27/19","11/12/19","11/11/19","Whippoorwill Corners","Coyote"
"442",39638990,1,"CHIPMUNK","07_42_WHIP_000109.JPG","07_42_WHIP_000110.JPG","07_42_WHIP_000111.JPG",7,42,"Pine","WHIP",4,"9/27/19","11/12/19","11/11/19","Whippoorwill Corners","Chipmunk"
"443",39638991,1,"SQUIRRELGRAY","07_42_WHIP_000112.JPG","07_42_WHIP_000113.JPG","07_42_WHIP_000114.JPG",7,42,"Pine","WHIP",4,"9/27/19","11/12/19","11/11/19","Whippoorwill Corners","Gray Squirrel"
"444",39638992,1,"CHIPMUNK","07_42_WHIP_000115.JPG","07_42_WHIP_000116.JPG","07_42_WHIP_000117.JPG",7,42,"Pine","WHIP",4,"9/27/19","11/12/19","11/11/19","Whippoorwill Corners","Chipmunk"
"445",39638993,1,"CHIPMUNK","07_42_WHIP_000118.JPG","07_42_WHIP_000119.JPG","07_42_WHIP_000120.JPG",7,42,"Pine","WHIP",4,"9/27/19","11/12/19","11/11/19","Whippoorwill Corners","Chipmunk"
"446",39639006,1,"CHIPMUNK","07_42_WHIP_000121.JPG","07_42_WHIP_000122.JPG","07_42_WHIP_000123.JPG",7,42,"Pine","WHIP",4,"9/27/19","11/12/19","11/11/19","Whippoorwill Corners","Chipmunk"
"447",39639036,1,"CHIPMUNK","07_42_WHIP_000124.JPG","07_42_WHIP_000125.JPG","07_42_WHIP_000126.JPG",7,42,"Pine","WHIP",4,"9/27/19","11/12/19","11/11/19","Whippoorwill Corners","Chipmunk"
"448",39639039,1,"CHIPMUNK","07_42_WHIP_000127.JPG","07_42_WHIP_000128.JPG","07_42_WHIP_000129.JPG",7,42,"Pine","WHIP",4,"9/27/19","11/12/19","11/11/19","Whippoorwill Corners","Chipmunk"
"449",39639055,1,"SQUIRRELGRAY","07_42_WHIP_000131.JPG","07_42_WHIP_000130.JPG","07_42_WHIP_000132.JPG",7,42,"Pine","WHIP",4,"9/27/19","11/12/19","11/11/19","Whippoorwill Corners","Gray Squirrel"
"450",39639057,1,"FISHER","07_42_WHIP_000134.JPG","07_42_WHIP_000133.JPG","07_42_WHIP_000135.JPG",7,42,"Pine","WHIP",4,"9/27/19","11/12/19","11/11/19","Whippoorwill Corners","Fisher"
"451",39639066,2,"CHIPMUNK","07_42_WHIP_000136.JPG","07_42_WHIP_000137.JPG","07_42_WHIP_000138.JPG",7,42,"Pine","WHIP",4,"9/27/19","11/12/19","11/11/19","Whippoorwill Corners","Chipmunk"
"452",39639197,1,"RACCOON","07_42_WHIP_000139.JPG","07_42_WHIP_000140.JPG","07_42_WHIP_000141.JPG",7,42,"Pine","WHIP",4,"9/27/19","11/12/19","11/11/19","Whippoorwill Corners","Raccoon"
"453",39639213,2,"SQUIRRELGRAY","07_42_WHIP_000142.JPG","07_42_WHIP_000143.JPG","07_42_WHIP_000144.JPG",7,42,"Pine","WHIP",4,"9/27/19","11/12/19","11/11/19","Whippoorwill Corners","Gray Squirrel"
"454",39639228,1,"BLUEJAY","07_42_WHIP_000145.JPG","07_42_WHIP_000146.JPG","07_42_WHIP_000147.JPG",7,42,"Pine","WHIP",4,"9/27/19","11/12/19","11/11/19","Whippoorwill Corners","Blue Jay"
"455",39639310,1,"SQUIRRELGRAY","07_42_WHIP_000148.JPG","07_42_WHIP_000149.JPG","07_42_WHIP_000150.JPG",7,42,"Pine","WHIP",4,"9/27/19","11/12/19","11/11/19","Whippoorwill Corners","Gray Squirrel"
"456",39639322,1,"NOTHINGHERE","07_42_WHIP_000151.JPG","07_42_WHIP_000152.JPG","07_42_WHIP_000153.JPG",7,42,"Pine","WHIP",4,"9/27/19","11/12/19","11/11/19","Whippoorwill Corners","Nothing Here"
"457",39639338,1,"NOTHINGHERE","07_42_WHIP_000154.JPG","07_42_WHIP_000155.JPG","07_42_WHIP_000156.JPG",7,42,"Pine","WHIP",4,"9/27/19","11/12/19","11/11/19","Whippoorwill Corners","Nothing Here"
"458",39639339,1,"SOMETHINGHERE","07_42_WHIP_000157.JPG","07_42_WHIP_000158.JPG","07_42_WHIP_000159.JPG",7,42,"Pine","WHIP",4,"9/27/19","11/12/19","11/11/19","Whippoorwill Corners","Something Here"
"459",39639363,1,"RACCOON","07_42_WHIP_000160.JPG","07_42_WHIP_000161.JPG","07_42_WHIP_000162.JPG",7,42,"Pine","WHIP",4,"9/27/19","11/12/19","11/11/19","Whippoorwill Corners","Raccoon"
"460",39639369,1,"SQUIRRELGRAY","07_42_WHIP_000163.JPG","07_42_WHIP_000165.JPG","07_42_WHIP_000164.JPG",7,42,"Pine","WHIP",4,"9/27/19","11/12/19","11/11/19","Whippoorwill Corners","Gray Squirrel"
"461",39639370,1,"SQUIRRELGRAY","07_42_WHIP_000166.JPG","07_42_WHIP_000167.JPG","07_42_WHIP_000168.JPG",7,42,"Pine","WHIP",4,"9/27/19","11/12/19","11/11/19","Whippoorwill Corners","Gray Squirrel"
"462",39639374,1,"RACCOON","07_42_WHIP_000169.JPG","07_42_WHIP_000170.JPG","07_42_WHIP_000171.JPG",7,42,"Pine","WHIP",4,"9/27/19","11/12/19","11/11/19","Whippoorwill Corners","Raccoon"
"463",39639409,1,"NOTHINGHERE","07_42_WHIP_000172.JPG","07_42_WHIP_000173.JPG","07_42_WHIP_000174.JPG",7,42,"Pine","WHIP",4,"9/27/19","11/12/19","11/11/19","Whippoorwill Corners","Nothing Here"
"464",39639415,1,"SQUIRRELGRAY","07_42_WHIP_000175.JPG","07_42_WHIP_000176.JPG","07_42_WHIP_000177.JPG",7,42,"Pine","WHIP",4,"9/27/19","11/12/19","11/11/19","Whippoorwill Corners","Gray Squirrel"
"465",39639441,1,"SQUIRRELGRAY","07_42_WHIP_000178.JPG","07_42_WHIP_000179.JPG","07_42_WHIP_000180.JPG",7,42,"Pine","WHIP",4,"9/27/19","11/12/19","11/11/19","Whippoorwill Corners","Gray Squirrel"
"466",39639447,1,"CHIPMUNK","07_42_WHIP_000181.JPG","07_42_WHIP_000182.JPG","07_42_WHIP_000183.JPG",7,42,"Pine","WHIP",4,"9/27/19","11/12/19","11/11/19","Whippoorwill Corners","Chipmunk"
"467",39639449,1,"CHIPMUNK","07_42_WHIP_000184.JPG","07_42_WHIP_000185.JPG","07_42_WHIP_000186.JPG",7,42,"Pine","WHIP",4,"9/27/19","11/12/19","11/11/19","Whippoorwill Corners","Chipmunk"
"468",39639456,2,"SQUIRRELGRAY","07_42_WHIP_000187.JPG","07_42_WHIP_000188.JPG","07_42_WHIP_000189.JPG",7,42,"Pine","WHIP",4,"9/27/19","11/12/19","11/11/19","Whippoorwill Corners","Gray Squirrel"
"469",39639484,1,"SQUIRRELGRAY","07_42_WHIP_000190.JPG","07_42_WHIP_000191.JPG",NA,7,42,"Pine","WHIP",4,"9/27/19","11/12/19","11/11/19","Whippoorwill Corners","Gray Squirrel"
"470",39639491,2,"PORCUPINE","07_42_WHIP_000193.JPG","07_42_WHIP_000194.JPG","07_42_WHIP_000195.JPG",7,42,"Pine","WHIP",4,"9/27/19","11/12/19","11/11/19","Whippoorwill Corners","Porcupine"
"471",39639499,1,"NOTHINGHERE","07_42_WHIP_000196.JPG","07_42_WHIP_000197.JPG","07_42_WHIP_000198.JPG",7,42,"Pine","WHIP",4,"9/27/19","11/12/19","11/11/19","Whippoorwill Corners","Nothing Here"
"472",39639515,1,"RACCOON","07_42_WHIP_000199.JPG","07_42_WHIP_000200.JPG","07_42_WHIP_000201.JPG",7,42,"Pine","WHIP",4,"9/27/19","11/12/19","11/11/19","Whippoorwill Corners","Raccoon"
"473",39639519,1,"RACCOON","07_42_WHIP_000202.JPG","07_42_WHIP_000203.JPG","07_42_WHIP_000204.JPG",7,42,"Pine","WHIP",4,"9/27/19","11/12/19","11/11/19","Whippoorwill Corners","Raccoon"
"474",39639573,1,"OTHERSMALLMAMMAL","07_42_WHIP_000205.JPG","07_42_WHIP_000206.JPG","07_42_WHIP_000207.JPG",7,42,"Pine","WHIP",4,"9/27/19","11/12/19","11/11/19","Whippoorwill Corners","Other Small Mammal"
"475",39639578,1,"CHIPMUNK","07_42_WHIP_000208.JPG","07_42_WHIP_000209.JPG","07_42_WHIP_000210.JPG",7,42,"Pine","WHIP",4,"9/27/19","11/12/19","11/11/19","Whippoorwill Corners","Chipmunk"
"476",39639583,1,"CHIPMUNK","07_42_WHIP_000211.JPG","07_42_WHIP_000212.JPG","07_42_WHIP_000213.JPG",7,42,"Pine","WHIP",4,"9/27/19","11/12/19","11/11/19","Whippoorwill Corners","Chipmunk"
"477",39639589,1,"SQUIRRELGRAY","07_42_WHIP_000214.JPG","07_42_WHIP_000215.JPG","07_42_WHIP_000216.JPG",7,42,"Pine","WHIP",4,"9/27/19","11/12/19","11/11/19","Whippoorwill Corners","Gray Squirrel"
"478",39639593,1,"DEERWHITETAILED","07_42_WHIP_000217.JPG","07_42_WHIP_000218.JPG","07_42_WHIP_000219.JPG",7,42,"Pine","WHIP",4,"9/27/19","11/12/19","11/11/19","Whippoorwill Corners","White-tailed Deer"
"479",39639613,1,"SQUIRRELGRAY","07_42_WHIP_000220.JPG","07_42_WHIP_000221.JPG","07_42_WHIP_000222.JPG",7,42,"Pine","WHIP",4,"9/27/19","11/12/19","11/11/19","Whippoorwill Corners","Gray Squirrel"
"480",39639661,1,"DEERWHITETAILED","07_42_WHIP_000223.JPG","07_42_WHIP_000224.JPG","07_42_WHIP_000225.JPG",7,42,"Pine","WHIP",4,"9/27/19","11/12/19","11/11/19","Whippoorwill Corners","White-tailed Deer"
"481",39639713,1,"SQUIRRELGRAY","07_42_WHIP_000226.JPG","07_42_WHIP_000227.JPG","07_42_WHIP_000228.JPG",7,42,"Pine","WHIP",4,"9/27/19","11/12/19","11/11/19","Whippoorwill Corners","Gray Squirrel"
"482",39639802,1,"OTHERSMALLMAMMAL","07_42_WHIP_000229.JPG","07_42_WHIP_000230.JPG","07_42_WHIP_000231.JPG",7,42,"Pine","WHIP",4,"9/27/19","11/12/19","11/11/19","Whippoorwill Corners","Other Small Mammal"
"483",39639817,1,"NOTHINGHERE","07_42_WHIP_000232.JPG","07_42_WHIP_000233.JPG","07_42_WHIP_000234.JPG",7,42,"Pine","WHIP",4,"9/27/19","11/12/19","11/11/19","Whippoorwill Corners","Nothing Here"
"484",39639868,1,"DEERWHITETAILED","07_42_WHIP_000235.JPG","07_42_WHIP_000236.JPG","07_42_WHIP_000237.JPG",7,42,"Pine","WHIP",4,"9/27/19","11/12/19","11/11/19","Whippoorwill Corners","White-tailed Deer"
"485",39639929,1,"DEERWHITETAILED","07_42_WHIP_000238.JPG","07_42_WHIP_000239.JPG","07_42_WHIP_000240.JPG",7,42,"Pine","WHIP",4,"9/27/19","11/12/19","11/11/19","Whippoorwill Corners","White-tailed Deer"
"486",37160179,1,"DEERWHITETAILED","08_11_DEG_000001.JPG","08_11_DEG_000002.JPG","08_11_DEG_000003.JPG",8,11,"Pine","DEG",2,"2/7/19","5/13/19","4/18/19","Degrasse","White-tailed Deer"
"487",37160180,2,"DEERWHITETAILED","08_11_DEG_000004.JPG","08_11_DEG_000005.JPG","08_11_DEG_000006.JPG",8,11,"Pine","DEG",2,"2/7/19","5/13/19","4/18/19","Degrasse","White-tailed Deer"
"488",37160181,1,"DEERWHITETAILED","08_11_DEG_000007.JPG","08_11_DEG_000008.JPG","08_11_DEG_000009.JPG",8,11,"Pine","DEG",2,"2/7/19","5/13/19","4/18/19","Degrasse","White-tailed Deer"
"489",37160182,1,"DEERWHITETAILED","08_11_DEG_000010.JPG","08_11_DEG_000011.JPG","08_11_DEG_000012.JPG",8,11,"Pine","DEG",2,"2/7/19","5/13/19","4/18/19","Degrasse","White-tailed Deer"
"490",37160183,1,"DEERWHITETAILED","08_11_DEG_000013.JPG","08_11_DEG_000014.JPG","08_11_DEG_000015.JPG",8,11,"Pine","DEG",2,"2/7/19","5/13/19","4/18/19","Degrasse","White-tailed Deer"
"491",31428313,1,"DEERWHITETAILED","09_25_WF_000001.JPG","09_25_WF_000002.JPG","09_25_WF_000003.JPG",9,25,"Pine","WF",1,"11/17/18","1/31/19","12/2/18","Whiskey Flats","White-tailed Deer"
"492",31428314,1,"SQUIRRELGRAY","09_25_WF_000004.JPG","09_25_WF_000005.JPG","09_25_WF_000006.JPG",9,25,"Pine","WF",1,"11/17/18","1/31/19","12/2/18","Whiskey Flats","Gray Squirrel"
"493",37160231,1,"NOTHINGHERE","10_25_SH_000001.JPG","10_25_SH_000002.JPG","10_25_SH_000003.JPG",10,25,"Deciduous","SH",2,"2/11/19","5/10/19","5/10/19","South Hammond","Nothing Here"
"494",37160232,1,"DEERWHITETAILED","10_25_SH_000004.JPG","10_25_SH_000005.JPG","10_25_SH_000006.JPG",10,25,"Deciduous","SH",2,"2/11/19","5/10/19","5/10/19","South Hammond","White-tailed Deer"
"495",37160233,1,"DEERWHITETAILED","10_25_SH_000007.JPG","10_25_SH_000008.JPG","10_25_SH_000009.JPG",10,25,"Deciduous","SH",2,"2/11/19","5/10/19","5/10/19","South Hammond","White-tailed Deer"
"496",37160234,1,"DEERWHITETAILED","10_25_SH_000010.JPG","10_25_SH_000011.JPG","10_25_SH_000012.JPG",10,25,"Deciduous","SH",2,"2/11/19","5/10/19","5/10/19","South Hammond","White-tailed Deer"
"497",37160235,1,"NOTHINGHERE","10_25_SH_000013.JPG","10_25_SH_000014.JPG","10_25_SH_000015.JPG",10,25,"Deciduous","SH",2,"2/11/19","5/10/19","5/10/19","South Hammond","Nothing Here"
"498",37160236,1,"NOTHINGHERE","10_25_SH_000016.JPG","10_25_SH_000017.JPG","10_25_SH_000018.JPG",10,25,"Deciduous","SH",2,"2/11/19","5/10/19","5/10/19","South Hammond","Nothing Here"
"499",37160237,1,"NOTHINGHERE","10_25_SH_000019.JPG","10_25_SH_000020.JPG","10_25_SH_000021.JPG",10,25,"Deciduous","SH",2,"2/11/19","5/10/19","5/10/19","South Hammond","Nothing Here"
"500",37160238,1,"NOTHINGHERE","10_25_SH_000022.JPG","10_25_SH_000023.JPG","10_25_SH_000024.JPG",10,25,"Deciduous","SH",2,"2/11/19","5/10/19","5/10/19","South Hammond","Nothing Here"
"501",37160239,1,"NOTHINGHERE","10_25_SH_000025.JPG","10_25_SH_000026.JPG","10_25_SH_000027.JPG",10,25,"Deciduous","SH",2,"2/11/19","5/10/19","5/10/19","South Hammond","Nothing Here"
"502",37160240,1,"NOTHINGHERE","10_25_SH_000028.JPG","10_25_SH_000029.JPG","10_25_SH_000030.JPG",10,25,"Deciduous","SH",2,"2/11/19","5/10/19","5/10/19","South Hammond","Nothing Here"
"503",37160241,1,"NOTHINGHERE","10_25_SH_000031.JPG","10_25_SH_000032.JPG","10_25_SH_000033.JPG",10,25,"Deciduous","SH",2,"2/11/19","5/10/19","5/10/19","South Hammond","Nothing Here"
"504",37160242,1,"NOTHINGHERE","10_25_SH_000034.JPG","10_25_SH_000035.JPG","10_25_SH_000036.JPG",10,25,"Deciduous","SH",2,"2/11/19","5/10/19","5/10/19","South Hammond","Nothing Here"
"505",37160243,1,"NOTHINGHERE","10_25_SH_000043.JPG","10_25_SH_000044.JPG",NA,10,25,"Deciduous","SH",2,"2/11/19","5/10/19","5/10/19","South Hammond","Nothing Here"
"506",37160244,1,"NOTHINGHERE","10_25_SH_000046.JPG","10_25_SH_000047.JPG","10_25_SH_000048.JPG",10,25,"Deciduous","SH",2,"2/11/19","5/10/19","5/10/19","South Hammond","Nothing Here"
"507",37160245,2,"NOTHINGHERE","10_25_SH_000052.JPG","10_25_SH_000053.JPG",NA,10,25,"Deciduous","SH",2,"2/11/19","5/10/19","5/10/19","South Hammond","Nothing Here"
"508",37160246,1,"NOTHINGHERE","10_25_SH_000058.JPG","10_25_SH_000059.JPG",NA,10,25,"Deciduous","SH",2,"2/11/19","5/10/19","5/10/19","South Hammond","Nothing Here"
"509",37160247,1,"NOTHINGHERE","10_25_SH_000064.JPG","10_25_SH_000065.JPG",NA,10,25,"Deciduous","SH",2,"2/11/19","5/10/19","5/10/19","South Hammond","Nothing Here"
"510",37160248,1,"NOTHINGHERE","10_25_SH_000067.JPG","10_25_SH_000068.JPG",NA,10,25,"Deciduous","SH",2,"2/11/19","5/10/19","5/10/19","South Hammond","Nothing Here"
"511",37160249,1,"NOTHINGHERE","10_25_SH_000070.JPG","10_25_SH_000071.JPG",NA,10,25,"Deciduous","SH",2,"2/11/19","5/10/19","5/10/19","South Hammond","Nothing Here"
"512",37160250,1,"NOTHINGHERE","10_25_SH_000074.JPG","10_25_SH_000075.JPG",NA,10,25,"Deciduous","SH",2,"2/11/19","5/10/19","5/10/19","South Hammond","Nothing Here"
"513",37160251,1,"NOTHINGHERE","10_25_SH_000076.JPG","10_25_SH_000077.JPG",NA,10,25,"Deciduous","SH",2,"2/11/19","5/10/19","5/10/19","South Hammond","Nothing Here"
"514",37160252,1,"NOTHINGHERE","10_25_SH_000079.JPG","10_25_SH_000080.JPG",NA,10,25,"Deciduous","SH",2,"2/11/19","5/10/19","5/10/19","South Hammond","Nothing Here"
"515",37160253,1,"NOTHINGHERE","10_25_SH_000082.JPG","10_25_SH_000083.JPG","10_25_SH_000084.JPG",10,25,"Deciduous","SH",2,"2/11/19","5/10/19","5/10/19","South Hammond","Nothing Here"
"516",37160254,1,"NOTHINGHERE","10_25_SH_000085.JPG","10_25_SH_000086.JPG","10_25_SH_000087.JPG",10,25,"Deciduous","SH",2,"2/11/19","5/10/19","5/10/19","South Hammond","Nothing Here"
"517",37160255,1,"NOTHINGHERE","10_25_SH_000097.JPG","10_25_SH_000098.JPG","10_25_SH_000099.JPG",10,25,"Deciduous","SH",2,"2/11/19","5/10/19","5/10/19","South Hammond","Nothing Here"
"518",37160256,1,"NOTHINGHERE","10_25_SH_000100.JPG","10_25_SH_000101.JPG",NA,10,25,"Deciduous","SH",2,"2/11/19","5/10/19","5/10/19","South Hammond","Nothing Here"
"519",37160257,1,"NOTHINGHERE","10_25_SH_000103.JPG","10_25_SH_000104.JPG","10_25_SH_000105.JPG",10,25,"Deciduous","SH",2,"2/11/19","5/10/19","5/10/19","South Hammond","Nothing Here"
"520",37160258,1,"NOTHINGHERE","10_25_SH_000106.JPG","10_25_SH_000107.JPG","10_25_SH_000108.JPG",10,25,"Deciduous","SH",2,"2/11/19","5/10/19","5/10/19","South Hammond","Nothing Here"
"521",37160259,1,"NOTHINGHERE","10_25_SH_000109.JPG","10_25_SH_000110.JPG",NA,10,25,"Deciduous","SH",2,"2/11/19","5/10/19","5/10/19","South Hammond","Nothing Here"
"522",37160260,1,"NOTHINGHERE","10_25_SH_000112.JPG","10_25_SH_000113.JPG","10_25_SH_000114.JPG",10,25,"Deciduous","SH",2,"2/11/19","5/10/19","5/10/19","South Hammond","Nothing Here"
"523",37160261,1,"NOTHINGHERE","10_25_SH_000115.JPG","10_25_SH_000116.JPG","10_25_SH_000117.JPG",10,25,"Deciduous","SH",2,"2/11/19","5/10/19","5/10/19","South Hammond","Nothing Here"
"524",37160262,1,"NOTHINGHERE","10_25_SH_000118.JPG","10_25_SH_000119.JPG","10_25_SH_000120.JPG",10,25,"Deciduous","SH",2,"2/11/19","5/10/19","5/10/19","South Hammond","Nothing Here"
"525",37160263,1,"NOTHINGHERE","10_25_SH_000121.JPG","10_25_SH_000122.JPG","10_25_SH_000123.JPG",10,25,"Deciduous","SH",2,"2/11/19","5/10/19","5/10/19","South Hammond","Nothing Here"
"526",37160264,1,"NOTHINGHERE","10_25_SH_000124.JPG","10_25_SH_000125.JPG","10_25_SH_000126.JPG",10,25,"Deciduous","SH",2,"2/11/19","5/10/19","5/10/19","South Hammond","Nothing Here"
"527",37160265,1,"NOTHINGHERE","10_25_SH_000127.JPG","10_25_SH_000128.JPG","10_25_SH_000129.JPG",10,25,"Deciduous","SH",2,"2/11/19","5/10/19","5/10/19","South Hammond","Nothing Here"
"528",37160266,1,"NOTHINGHERE","10_25_SH_000130.JPG","10_25_SH_000131.JPG","10_25_SH_000132.JPG",10,25,"Deciduous","SH",2,"2/11/19","5/10/19","5/10/19","South Hammond","Nothing Here"
"529",37160267,2,"NOTHINGHERE","10_25_SH_000133.JPG","10_25_SH_000134.JPG","10_25_SH_000135.JPG",10,25,"Deciduous","SH",2,"2/11/19","5/10/19","5/10/19","South Hammond","Nothing Here"
"530",37160268,1,"NOTHINGHERE","10_25_SH_000139.JPG","10_25_SH_000140.JPG","10_25_SH_000141.JPG",10,25,"Deciduous","SH",2,"2/11/19","5/10/19","5/10/19","South Hammond","Nothing Here"
"531",37160269,1,"NOTHINGHERE","10_25_SH_000142.JPG","10_25_SH_000143.JPG",NA,10,25,"Deciduous","SH",2,"2/11/19","5/10/19","5/10/19","South Hammond","Nothing Here"
"532",37160270,1,"NOTHINGHERE","10_25_SH_000145.JPG","10_25_SH_000146.JPG","10_25_SH_000147.JPG",10,25,"Deciduous","SH",2,"2/11/19","5/10/19","5/10/19","South Hammond","Nothing Here"
"533",37160271,1,"NOTHINGHERE","10_25_SH_000148.JPG","10_25_SH_000149.JPG","10_25_SH_000150.JPG",10,25,"Deciduous","SH",2,"2/11/19","5/10/19","5/10/19","South Hammond","Nothing Here"
"534",37160272,1,"NOTHINGHERE","10_25_SH_000160.JPG","10_25_SH_000161.JPG","10_25_SH_000162.JPG",10,25,"Deciduous","SH",2,"2/11/19","5/10/19","5/10/19","South Hammond","Nothing Here"
"535",37160273,1,"NOTHINGHERE","10_25_SH_000163.JPG","10_25_SH_000164.JPG","10_25_SH_000165.JPG",10,25,"Deciduous","SH",2,"2/11/19","5/10/19","5/10/19","South Hammond","Nothing Here"
"536",37160274,2,"NOTHINGHERE","10_25_SH_000166.JPG","10_25_SH_000167.JPG","10_25_SH_000168.JPG",10,25,"Deciduous","SH",2,"2/11/19","5/10/19","5/10/19","South Hammond","Nothing Here"
"537",37160275,1,"NOTHINGHERE","10_25_SH_000169.JPG","10_25_SH_000170.JPG","10_25_SH_000171.JPG",10,25,"Deciduous","SH",2,"2/11/19","5/10/19","5/10/19","South Hammond","Nothing Here"
"538",37160276,1,"NOTHINGHERE","10_25_SH_000172.JPG","10_25_SH_000173.JPG","10_25_SH_000174.JPG",10,25,"Deciduous","SH",2,"2/11/19","5/10/19","5/10/19","South Hammond","Nothing Here"
"539",37160277,1,"NOTHINGHERE","10_25_SH_000175.JPG","10_25_SH_000176.JPG","10_25_SH_000177.JPG",10,25,"Deciduous","SH",2,"2/11/19","5/10/19","5/10/19","South Hammond","Nothing Here"
"540",37160278,1,"NOTHINGHERE","10_25_SH_000178.JPG","10_25_SH_000179.JPG","10_25_SH_000180.JPG",10,25,"Deciduous","SH",2,"2/11/19","5/10/19","5/10/19","South Hammond","Nothing Here"
"541",37160279,1,"NOTHINGHERE","10_25_SH_000181.JPG","10_25_SH_000182.JPG",NA,10,25,"Deciduous","SH",2,"2/11/19","5/10/19","5/10/19","South Hammond","Nothing Here"
"542",37160280,1,"NOTHINGHERE","10_25_SH_000184.JPG","10_25_SH_000185.JPG","10_25_SH_000186.JPG",10,25,"Deciduous","SH",2,"2/11/19","5/10/19","5/10/19","South Hammond","Nothing Here"
"543",37160281,1,"NOTHINGHERE","10_25_SH_000199.JPG","10_25_SH_000200.JPG",NA,10,25,"Deciduous","SH",2,"2/11/19","5/10/19","5/10/19","South Hammond","Nothing Here"
"544",37160282,1,"NOTHINGHERE","10_25_SH_000202.JPG","10_25_SH_000203.JPG",NA,10,25,"Deciduous","SH",2,"2/11/19","5/10/19","5/10/19","South Hammond","Nothing Here"
