"","X1","subject_ids","diff_species","choice","Imj1","Imj2","Img3","CamNum","SD_card_num","ForestType","ForestName","round","Date_Out","Date_Checked","Use_End_Date","Forest","Species","Diet"
"1",2,39638692,1,"DEERWHITETAILED","01_23_DEG_000004.JPG","01_23_DEG_000005.JPG","01_23_DEG_000006.JPG",1,23,"Pine","DEG",4,"9/27/19","11/17/19","11/17/19","Degrasse","White-tailed Deer","Herbivore"
"2",3,39638739,1,"CHIPMUNK","01_23_DEG_000007.JPG","01_23_DEG_000008.JPG","01_23_DEG_000009.JPG",1,23,"Pine","DEG",4,"9/27/19","11/17/19","11/17/19","Degrasse","Chipmunk","Omnivore"
"3",4,39638777,1,"COYOTE","01_23_DEG_000010.JPG","01_23_DEG_000011.JPG","01_23_DEG_000012.JPG",1,23,"Pine","DEG",4,"9/27/19","11/17/19","11/17/19","Degrasse","Coyote","Mesocarnivore"
"4",6,39638804,2,"FISHER","01_23_DEG_000016.JPG","01_23_DEG_000017.JPG","01_23_DEG_000018.JPG",1,23,"Pine","DEG",4,"9/27/19","11/17/19","11/17/19","Degrasse","Fisher","Mesocarnivore"
"5",7,39638831,1,"COTTONTAILRABBIT","01_23_DEG_000019.JPG","01_23_DEG_000020.JPG","01_23_DEG_000021.JPG",1,23,"Pine","DEG",4,"9/27/19","11/17/19","11/17/19","Degrasse","Cottontail Rabbit","Herbivore"
"6",8,39638837,1,"COTTONTAILRABBIT","01_23_DEG_000022.JPG","01_23_DEG_000023.JPG","01_23_DEG_000024.JPG",1,23,"Pine","DEG",4,"9/27/19","11/17/19","11/17/19","Degrasse","Cottontail Rabbit","Herbivore"
"7",9,39638847,1,"COTTONTAILRABBIT","01_23_DEG_000025.JPG","01_23_DEG_000026.JPG","01_23_DEG_000027.JPG",1,23,"Pine","DEG",4,"9/27/19","11/17/19","11/17/19","Degrasse","Cottontail Rabbit","Herbivore"
"8",12,39638904,1,"CHIPMUNK","01_23_DEG_000034.JPG","01_23_DEG_000035.JPG","01_23_DEG_000036.JPG",1,23,"Pine","DEG",4,"9/27/19","11/17/19","11/17/19","Degrasse","Chipmunk","Omnivore"
"9",13,39638906,1,"CHIPMUNK","01_23_DEG_000037.JPG","01_23_DEG_000038.JPG","01_23_DEG_000039.JPG",1,23,"Pine","DEG",4,"9/27/19","11/17/19","11/17/19","Degrasse","Chipmunk","Omnivore"
"10",14,39638920,1,"COTTONTAILRABBIT","01_23_DEG_000040.JPG","01_23_DEG_000042.JPG","01_23_DEG_000041.JPG",1,23,"Pine","DEG",4,"9/27/19","11/17/19","11/17/19","Degrasse","Cottontail Rabbit","Herbivore"
"11",15,39638921,1,"DEERWHITETAILED","01_23_DEG_000043.JPG","01_23_DEG_000044.JPG","01_23_DEG_000045.JPG",1,23,"Pine","DEG",4,"9/27/19","11/17/19","11/17/19","Degrasse","White-tailed Deer","Herbivore"
"12",16,39638922,1,"COTTONTAILRABBIT","01_23_DEG_000046.JPG","01_23_DEG_000047.JPG","01_23_DEG_000048.JPG",1,23,"Pine","DEG",4,"9/27/19","11/17/19","11/17/19","Degrasse","Cottontail Rabbit","Herbivore"
"13",17,39638930,1,"DEERWHITETAILED","01_23_DEG_000049.JPG","01_23_DEG_000051.JPG","01_23_DEG_000050.JPG",1,23,"Pine","DEG",4,"9/27/19","11/17/19","11/17/19","Degrasse","White-tailed Deer","Herbivore"
"14",18,39638935,1,"RACCOON","01_23_DEG_000052.JPG","01_23_DEG_000054.JPG","01_23_DEG_000053.JPG",1,23,"Pine","DEG",4,"9/27/19","11/17/19","11/17/19","Degrasse","Raccoon","Mesocarnivore"
"15",19,39638986,2,"CHIPMUNK","01_23_DEG_000055.JPG","01_23_DEG_000056.JPG","01_23_DEG_000057.JPG",1,23,"Pine","DEG",4,"9/27/19","11/17/19","11/17/19","Degrasse","Chipmunk","Omnivore"
"16",20,39638989,1,"CHIPMUNK","01_23_DEG_000058.JPG","01_23_DEG_000059.JPG","01_23_DEG_000060.JPG",1,23,"Pine","DEG",4,"9/27/19","11/17/19","11/17/19","Degrasse","Chipmunk","Omnivore"
"17",21,39639040,1,"CHIPMUNK","01_23_DEG_000061.JPG","01_23_DEG_000062.JPG","01_23_DEG_000063.JPG",1,23,"Pine","DEG",4,"9/27/19","11/17/19","11/17/19","Degrasse","Chipmunk","Omnivore"
"18",22,39639044,1,"COTTONTAILRABBIT","01_23_DEG_000064.JPG","01_23_DEG_000066.JPG","01_23_DEG_000065.JPG",1,23,"Pine","DEG",4,"9/27/19","11/17/19","11/17/19","Degrasse","Cottontail Rabbit","Herbivore"
"19",23,39639045,1,"DEERWHITETAILED","01_23_DEG_000067.JPG","01_23_DEG_000068.JPG","01_23_DEG_000069.JPG",1,23,"Pine","DEG",4,"9/27/19","11/17/19","11/17/19","Degrasse","White-tailed Deer","Herbivore"
"20",24,39639134,1,"CHIPMUNK","01_23_DEG_000070.JPG","01_23_DEG_000071.JPG","01_23_DEG_000072.JPG",1,23,"Pine","DEG",4,"9/27/19","11/17/19","11/17/19","Degrasse","Chipmunk","Omnivore"
"21",25,39639136,1,"CHIPMUNK","01_23_DEG_000073.JPG","01_23_DEG_000074.JPG","01_23_DEG_000075.JPG",1,23,"Pine","DEG",4,"9/27/19","11/17/19","11/17/19","Degrasse","Chipmunk","Omnivore"
"22",26,39639207,1,"DEERWHITETAILED","01_23_DEG_000076.JPG","01_23_DEG_000077.JPG","01_23_DEG_000078.JPG",1,23,"Pine","DEG",4,"9/27/19","11/17/19","11/17/19","Degrasse","White-tailed Deer","Herbivore"
"23",27,39639218,1,"COTTONTAILRABBIT","01_23_DEG_000079.JPG","01_23_DEG_000080.JPG","01_23_DEG_000081.JPG",1,23,"Pine","DEG",4,"9/27/19","11/17/19","11/17/19","Degrasse","Cottontail Rabbit","Herbivore"
"24",29,39639304,1,"DEERWHITETAILED","01_23_DEG_000087.JPG","01_23_DEG_000085.JPG","01_23_DEG_000086.JPG",1,23,"Pine","DEG",4,"9/27/19","11/17/19","11/17/19","Degrasse","White-tailed Deer","Herbivore"
"25",30,39639307,1,"DEERWHITETAILED","01_23_DEG_000088.JPG","01_23_DEG_000089.JPG","01_23_DEG_000090.JPG",1,23,"Pine","DEG",4,"9/27/19","11/17/19","11/17/19","Degrasse","White-tailed Deer","Herbivore"
"26",32,39639426,1,"COTTONTAILRABBIT","01_23_DEG_000094.JPG","01_23_DEG_000095.JPG","01_23_DEG_000096.JPG",1,23,"Pine","DEG",4,"9/27/19","11/17/19","11/17/19","Degrasse","Cottontail Rabbit","Herbivore"
"27",33,39639443,1,"SQUIRRELRED","01_23_DEG_000097.JPG","01_23_DEG_000098.JPG","01_23_DEG_000099.JPG",1,23,"Pine","DEG",4,"9/27/19","11/17/19","11/17/19","Degrasse","Red Squirrel","Omnivore"
"28",36,39639520,1,"COYOTE","01_23_DEG_000106.JPG","01_23_DEG_000107.JPG","01_23_DEG_000108.JPG",1,23,"Pine","DEG",4,"9/27/19","11/17/19","11/17/19","Degrasse","Coyote","Mesocarnivore"
"29",39,39639684,1,"COTTONTAILRABBIT","01_23_DEG_000115.JPG","01_23_DEG_000116.JPG","01_23_DEG_000117.JPG",1,23,"Pine","DEG",4,"9/27/19","11/17/19","11/17/19","Degrasse","Cottontail Rabbit","Herbivore"
"30",41,39639699,1,"OTHERSMALLMAMMAL","01_23_DEG_000121.JPG","01_23_DEG_000122.JPG","01_23_DEG_000123.JPG",1,23,"Pine","DEG",4,"9/27/19","11/17/19","11/17/19","Degrasse","Other Small Mammal","Omnivore"
"31",42,39639702,1,"DEERWHITETAILED","01_23_DEG_000124.JPG","01_23_DEG_000125.JPG","01_23_DEG_000126.JPG",1,23,"Pine","DEG",4,"9/27/19","11/17/19","11/17/19","Degrasse","White-tailed Deer","Herbivore"
"32",44,39639814,1,"DEERWHITETAILED","01_23_DEG_000131.JPG","01_23_DEG_000130.JPG","01_23_DEG_000132.JPG",1,23,"Pine","DEG",4,"9/27/19","11/17/19","11/17/19","Degrasse","White-tailed Deer","Herbivore"
"33",45,39639875,1,"FISHER","01_23_DEG_000133.JPG","01_23_DEG_000134.JPG","01_23_DEG_000135.JPG",1,23,"Pine","DEG",4,"9/27/19","11/17/19","11/17/19","Degrasse","Fisher","Mesocarnivore"
"34",46,39639879,1,"DEERWHITETAILED","01_23_DEG_000136.JPG","01_23_DEG_000137.JPG","01_23_DEG_000138.JPG",1,23,"Pine","DEG",4,"9/27/19","11/17/19","11/17/19","Degrasse","White-tailed Deer","Herbivore"
"35",47,39639890,1,"COYOTE","01_23_DEG_000139.JPG","01_23_DEG_000140.JPG","01_23_DEG_000141.JPG",1,23,"Pine","DEG",4,"9/27/19","11/17/19","11/17/19","Degrasse","Coyote","Mesocarnivore"
"36",49,39639947,1,"DEERWHITETAILED","01_23_DEG_000148.JPG","01_23_DEG_000149.JPG","01_23_DEG_000150.JPG",1,23,"Pine","DEG",4,"9/27/19","11/17/19","11/17/19","Degrasse","White-tailed Deer","Herbivore"
"37",50,39639953,1,"DEERWHITETAILED","01_23_DEG_000151.JPG","01_23_DEG_000152.JPG","01_23_DEG_000153.JPG",1,23,"Pine","DEG",4,"9/27/19","11/17/19","11/17/19","Degrasse","White-tailed Deer","Herbivore"
"38",51,39639954,1,"FISHER","01_23_DEG_000154.JPG","01_23_DEG_000155.JPG","01_23_DEG_000156.JPG",1,23,"Pine","DEG",4,"9/27/19","11/17/19","11/17/19","Degrasse","Fisher","Mesocarnivore"
"39",54,39638591,1,"OPOSSUM","02_07_SH_000001.JPG","02_07_SH_000002.JPG","02_07_SH_000003.JPG",2,7,"Deciduous","SH",4,"9/20/19","12/7/19","9/25/19","South Hammond","Opossum","Mesocarnivore"
"40",55,39638592,1,"OPOSSUM","02_07_SH_000004.JPG","02_07_SH_000005.JPG","02_07_SH_000006.JPG",2,7,"Deciduous","SH",4,"9/20/19","12/7/19","9/25/19","South Hammond","Opossum","Mesocarnivore"
"41",56,39638600,1,"SQUIRRELGRAY","02_07_SH_000007.JPG","02_07_SH_000008.JPG","02_07_SH_000009.JPG",2,7,"Deciduous","SH",4,"9/20/19","12/7/19","9/25/19","South Hammond","Gray Squirrel","Omnivore"
"42",57,39638606,1,"SQUIRRELGRAY","02_07_SH_000010.JPG","02_07_SH_000011.JPG","02_07_SH_000012.JPG",2,7,"Deciduous","SH",4,"9/20/19","12/7/19","9/25/19","South Hammond","Gray Squirrel","Omnivore"
"43",58,39638615,1,"RACCOON","02_07_SH_000013.JPG","02_07_SH_000014.JPG","02_07_SH_000015.JPG",2,7,"Deciduous","SH",4,"9/20/19","12/7/19","9/25/19","South Hammond","Raccoon","Mesocarnivore"
"44",59,39638627,2,"BLACKBEAR","02_07_SH_000016.JPG","02_07_SH_000017.JPG","02_07_SH_000018.JPG",2,7,"Deciduous","SH",4,"9/20/19","12/7/19","9/25/19","South Hammond","Black Bear","Omnivore"
"45",60,39638631,1,"BLACKBEAR","02_07_SH_000019.JPG","02_07_SH_000020.JPG","02_07_SH_000021.JPG",2,7,"Deciduous","SH",4,"9/20/19","12/7/19","9/25/19","South Hammond","Black Bear","Omnivore"
"46",62,37156529,1,"DEERWHITETAILED","02_42_WHIP_000004.JPG","02_42_WHIP_000005.JPG","02_42_WHIP_000006.JPG",2,42,"Pine","WHIP",2,"1/24/19","5/13/19","4/22/19","Whippoorwill Corners","White-tailed Deer","Herbivore"
"47",63,37156530,1,"FISHER","02_42_WHIP_000007.JPG","02_42_WHIP_000008.JPG","02_42_WHIP_000009.JPG",2,42,"Pine","WHIP",2,"1/24/19","5/13/19","4/22/19","Whippoorwill Corners","Fisher","Mesocarnivore"
"48",64,37156531,1,"DEERWHITETAILED","02_42_WHIP_000010.JPG","02_42_WHIP_000011.JPG","02_42_WHIP_000012.JPG",2,42,"Pine","WHIP",2,"1/24/19","5/13/19","4/22/19","Whippoorwill Corners","White-tailed Deer","Herbivore"
"49",65,37156532,1,"DEERWHITETAILED","02_42_WHIP_000013.JPG","02_42_WHIP_000014.JPG","02_42_WHIP_000015.JPG",2,42,"Pine","WHIP",2,"1/24/19","5/13/19","4/22/19","Whippoorwill Corners","White-tailed Deer","Herbivore"
"50",68,37156535,1,"DEERWHITETAILED","02_42_WHIP_000022.JPG","02_42_WHIP_000023.JPG",NA,2,42,"Pine","WHIP",2,"1/24/19","5/13/19","4/22/19","Whippoorwill Corners","White-tailed Deer","Herbivore"
"51",69,37156536,1,"DEERWHITETAILED","02_42_WHIP_000025.JPG","02_42_WHIP_000026.JPG",NA,2,42,"Pine","WHIP",2,"1/24/19","5/13/19","4/22/19","Whippoorwill Corners","White-tailed Deer","Herbivore"
"52",70,37156537,1,"DEERWHITETAILED","02_42_WHIP_000028.JPG","02_42_WHIP_000029.JPG",NA,2,42,"Pine","WHIP",2,"1/24/19","5/13/19","4/22/19","Whippoorwill Corners","White-tailed Deer","Herbivore"
"53",71,37156538,1,"DEERWHITETAILED","02_42_WHIP_000034.JPG","02_42_WHIP_000035.JPG","02_42_WHIP_000036.JPG",2,42,"Pine","WHIP",2,"1/24/19","5/13/19","4/22/19","Whippoorwill Corners","White-tailed Deer","Herbivore"
"54",73,37156540,1,"DEERWHITETAILED","02_42_WHIP_000040.JPG","02_42_WHIP_000041.JPG","02_42_WHIP_000042.JPG",2,42,"Pine","WHIP",2,"1/24/19","5/13/19","4/22/19","Whippoorwill Corners","White-tailed Deer","Herbivore"
"55",75,37156542,1,"DEERWHITETAILED","02_42_WHIP_000046.JPG","02_42_WHIP_000047.JPG","02_42_WHIP_000048.JPG",2,42,"Pine","WHIP",2,"1/24/19","5/13/19","4/22/19","Whippoorwill Corners","White-tailed Deer","Herbivore"
"56",76,37156543,1,"DEERWHITETAILED","02_42_WHIP_000049.JPG","02_42_WHIP_000050.JPG","02_42_WHIP_000051.JPG",2,42,"Pine","WHIP",2,"1/24/19","5/13/19","4/22/19","Whippoorwill Corners","White-tailed Deer","Herbivore"
"57",80,37156547,1,"DEERWHITETAILED","02_42_WHIP_000061.JPG","02_42_WHIP_000062.JPG","02_42_WHIP_000063.JPG",2,42,"Pine","WHIP",2,"1/24/19","5/13/19","4/22/19","Whippoorwill Corners","White-tailed Deer","Herbivore"
"58",81,37156548,1,"DEERWHITETAILED","02_42_WHIP_000064.JPG","02_42_WHIP_000065.JPG","02_42_WHIP_000066.JPG",2,42,"Pine","WHIP",2,"1/24/19","5/13/19","4/22/19","Whippoorwill Corners","White-tailed Deer","Herbivore"
"59",82,37156550,1,"DEERWHITETAILED","02_42_WHIP_000067.JPG","02_42_WHIP_000068.JPG","02_42_WHIP_000069.JPG",2,42,"Pine","WHIP",2,"1/24/19","5/13/19","4/22/19","Whippoorwill Corners","White-tailed Deer","Herbivore"
"60",83,37156551,1,"DEERWHITETAILED","02_42_WHIP_000070.JPG","02_42_WHIP_000071.JPG","02_42_WHIP_000072.JPG",2,42,"Pine","WHIP",2,"1/24/19","5/13/19","4/22/19","Whippoorwill Corners","White-tailed Deer","Herbivore"
"61",84,37156552,1,"RACCOON","02_42_WHIP_000073.JPG","02_42_WHIP_000074.JPG","02_42_WHIP_000075.JPG",2,42,"Pine","WHIP",2,"1/24/19","5/13/19","4/22/19","Whippoorwill Corners","Raccoon","Mesocarnivore"
"62",85,37156553,1,"DEERWHITETAILED","02_42_WHIP_000076.JPG","02_42_WHIP_000077.JPG","02_42_WHIP_000078.JPG",2,42,"Pine","WHIP",2,"1/24/19","5/13/19","4/22/19","Whippoorwill Corners","White-tailed Deer","Herbivore"
"63",87,37156555,1,"RACCOON","02_42_WHIP_000082.JPG","02_42_WHIP_000083.JPG","02_42_WHIP_000084.JPG",2,42,"Pine","WHIP",2,"1/24/19","5/13/19","4/22/19","Whippoorwill Corners","Raccoon","Mesocarnivore"
"64",89,37156557,1,"DEERWHITETAILED","02_42_WHIP_000088.JPG","02_42_WHIP_000089.JPG","02_42_WHIP_000090.JPG",2,42,"Pine","WHIP",2,"1/24/19","5/13/19","4/22/19","Whippoorwill Corners","White-tailed Deer","Herbivore"
"65",90,37156558,1,"DEERWHITETAILED","02_42_WHIP_000091.JPG","02_42_WHIP_000092.JPG","02_42_WHIP_000093.JPG",2,42,"Pine","WHIP",2,"1/24/19","5/13/19","4/22/19","Whippoorwill Corners","White-tailed Deer","Herbivore"
"66",92,37156560,1,"COYOTE","02_42_WHIP_000097.JPG","02_42_WHIP_000098.JPG","02_42_WHIP_000099.JPG",2,42,"Pine","WHIP",2,"1/24/19","5/13/19","4/22/19","Whippoorwill Corners","Coyote","Mesocarnivore"
"67",93,37156561,1,"DEERWHITETAILED","02_42_WHIP_000100.JPG","02_42_WHIP_000101.JPG","02_42_WHIP_000102.JPG",2,42,"Pine","WHIP",2,"1/24/19","5/13/19","4/22/19","Whippoorwill Corners","White-tailed Deer","Herbivore"
"68",95,37818668,1,"COTTONTAILRABBIT","03_05_SH_000001.JPG","03_05_SH_000002.JPG","03_05_SH_000003.JPG",3,5,"Deciduous","SH",1,"11/14/18","2/11/19","11/28/18","South Hammond","Cottontail Rabbit","Herbivore"
"69",100,37818670,2,"COTTONTAILRABBIT","03_05_SH_000007.JPG","03_05_SH_000008.JPG","03_05_SH_000009.JPG",3,5,"Deciduous","SH",3,"5/10/19","8/31/19","8/31/19","South Hammond","Cottontail Rabbit","Herbivore"
"70",102,37818671,1,"COTTONTAILRABBIT","03_05_SH_000010.JPG","03_05_SH_000011.JPG","03_05_SH_000012.JPG",3,5,"Deciduous","SH",3,"5/10/19","8/31/19","8/31/19","South Hammond","Cottontail Rabbit","Herbivore"
"71",103,37818851,1,"DEERWHITETAILED","03_05_SH_000013.JPG","03_05_SH_000014.JPG","03_05_SH_000015.JPG",3,5,"Deciduous","SH",1,"11/14/18","2/11/19","11/28/18","South Hammond","White-tailed Deer","Herbivore"
"72",104,31428290,1,"DEERWHITETAILED","03_05_SH_000013.JPG","03_05_SH_000014.JPG","03_05_SH_000015.JPG",3,5,"Deciduous","SH",3,"5/10/19","8/31/19","8/31/19","South Hammond","White-tailed Deer","Herbivore"
"73",114,37156565,1,"DEERWHITETAILED","03_07_SH_000007.JPG","03_07_SH_000008.JPG","03_07_SH_000009.JPG",3,7,"Deciduous","SH",2,"2/11/19","5/10/19","5/10/19","South Hammond","White-tailed Deer","Herbivore"
"74",115,37156566,1,"DEERWHITETAILED","03_07_SH_000010.JPG","03_07_SH_000011.JPG","03_07_SH_000012.JPG",3,7,"Deciduous","SH",2,"2/11/19","5/10/19","5/10/19","South Hammond","White-tailed Deer","Herbivore"
"75",116,37156567,1,"DEERWHITETAILED","03_07_SH_000013.JPG","03_07_SH_000014.JPG","03_07_SH_000015.JPG",3,7,"Deciduous","SH",2,"2/11/19","5/10/19","5/10/19","South Hammond","White-tailed Deer","Herbivore"
"76",118,37156569,1,"DEERWHITETAILED","03_07_SH_000019.JPG","03_07_SH_000020.JPG","03_07_SH_000021.JPG",3,7,"Deciduous","SH",2,"2/11/19","5/10/19","5/10/19","South Hammond","White-tailed Deer","Herbivore"
"77",119,37156570,1,"DEERWHITETAILED","03_07_SH_000022.JPG","03_07_SH_000023.JPG","03_07_SH_000024.JPG",3,7,"Deciduous","SH",2,"2/11/19","5/10/19","5/10/19","South Hammond","White-tailed Deer","Herbivore"
"78",120,37156571,1,"DEERWHITETAILED","03_07_SH_000025.JPG","03_07_SH_000026.JPG","03_07_SH_000027.JPG",3,7,"Deciduous","SH",2,"2/11/19","5/10/19","5/10/19","South Hammond","White-tailed Deer","Herbivore"
"79",121,37156572,1,"DEERWHITETAILED","03_07_SH_000028.JPG","03_07_SH_000029.JPG","03_07_SH_000030.JPG",3,7,"Deciduous","SH",2,"2/11/19","5/10/19","5/10/19","South Hammond","White-tailed Deer","Herbivore"
"80",122,37156573,1,"DEERWHITETAILED","03_07_SH_000031.JPG","03_07_SH_000032.JPG","03_07_SH_000033.JPG",3,7,"Deciduous","SH",2,"2/11/19","5/10/19","5/10/19","South Hammond","White-tailed Deer","Herbivore"
"81",131,37156582,1,"DEERWHITETAILED","03_07_SH_000058.JPG","03_07_SH_000059.JPG","03_07_SH_000060.JPG",3,7,"Deciduous","SH",2,"2/11/19","5/10/19","5/10/19","South Hammond","White-tailed Deer","Herbivore"
"82",132,37156583,1,"DEERWHITETAILED","03_07_SH_000061.JPG","03_07_SH_000062.JPG","03_07_SH_000063.JPG",3,7,"Deciduous","SH",2,"2/11/19","5/10/19","5/10/19","South Hammond","White-tailed Deer","Herbivore"
"83",133,37156584,1,"DEERWHITETAILED","03_07_SH_000064.JPG","03_07_SH_000065.JPG","03_07_SH_000066.JPG",3,7,"Deciduous","SH",2,"2/11/19","5/10/19","5/10/19","South Hammond","White-tailed Deer","Herbivore"
"84",134,37156585,1,"DEERWHITETAILED","03_07_SH_000067.JPG","03_07_SH_000068.JPG","03_07_SH_000069.JPG",3,7,"Deciduous","SH",2,"2/11/19","5/10/19","5/10/19","South Hammond","White-tailed Deer","Herbivore"
"85",135,37156586,1,"DEERWHITETAILED","03_07_SH_000070.JPG","03_07_SH_000071.JPG","03_07_SH_000072.JPG",3,7,"Deciduous","SH",2,"2/11/19","5/10/19","5/10/19","South Hammond","White-tailed Deer","Herbivore"
"86",137,37156588,1,"DEERWHITETAILED","03_07_SH_000076.JPG","03_07_SH_000077.JPG","03_07_SH_000078.JPG",3,7,"Deciduous","SH",2,"2/11/19","5/10/19","5/10/19","South Hammond","White-tailed Deer","Herbivore"
"87",138,37156589,2,"DEERWHITETAILED","03_07_SH_000079.JPG","03_07_SH_000080.JPG","03_07_SH_000081.JPG",3,7,"Deciduous","SH",2,"2/11/19","5/10/19","5/10/19","South Hammond","White-tailed Deer","Herbivore"
"88",139,37156590,1,"DEERWHITETAILED","03_07_SH_000082.JPG","03_07_SH_000083.JPG","03_07_SH_000084.JPG",3,7,"Deciduous","SH",2,"2/11/19","5/10/19","5/10/19","South Hammond","White-tailed Deer","Herbivore"
"89",140,37156591,1,"DEERWHITETAILED","03_07_SH_000085.JPG","03_07_SH_000086.JPG","03_07_SH_000087.JPG",3,7,"Deciduous","SH",2,"2/11/19","5/10/19","5/10/19","South Hammond","White-tailed Deer","Herbivore"
"90",141,37156592,1,"DEERWHITETAILED","03_07_SH_000088.JPG","03_07_SH_000089.JPG","03_07_SH_000090.JPG",3,7,"Deciduous","SH",2,"2/11/19","5/10/19","5/10/19","South Hammond","White-tailed Deer","Herbivore"
"91",142,37156593,1,"DEERWHITETAILED","03_07_SH_000091.JPG","03_07_SH_000092.JPG","03_07_SH_000093.JPG",3,7,"Deciduous","SH",2,"2/11/19","5/10/19","5/10/19","South Hammond","White-tailed Deer","Herbivore"
"92",143,37156594,1,"DEERWHITETAILED","03_07_SH_000094.JPG","03_07_SH_000095.JPG","03_07_SH_000096.JPG",3,7,"Deciduous","SH",2,"2/11/19","5/10/19","5/10/19","South Hammond","White-tailed Deer","Herbivore"
"93",144,37156595,1,"DEERWHITETAILED","03_07_SH_000097.JPG","03_07_SH_000098.JPG","03_07_SH_000099.JPG",3,7,"Deciduous","SH",2,"2/11/19","5/10/19","5/10/19","South Hammond","White-tailed Deer","Herbivore"
"94",145,37156596,1,"DEERWHITETAILED","03_07_SH_000100.JPG","03_07_SH_000101.JPG","03_07_SH_000102.JPG",3,7,"Deciduous","SH",2,"2/11/19","5/10/19","5/10/19","South Hammond","White-tailed Deer","Herbivore"
"95",146,37156597,1,"DEERWHITETAILED","03_07_SH_000103.JPG","03_07_SH_000104.JPG","03_07_SH_000105.JPG",3,7,"Deciduous","SH",2,"2/11/19","5/10/19","5/10/19","South Hammond","White-tailed Deer","Herbivore"
"96",147,37156598,1,"DEERWHITETAILED","03_07_SH_000109.JPG","03_07_SH_000110.JPG","03_07_SH_000111.JPG",3,7,"Deciduous","SH",2,"2/11/19","5/10/19","5/10/19","South Hammond","White-tailed Deer","Herbivore"
"97",148,37156599,1,"DEERWHITETAILED","03_07_SH_000112.JPG","03_07_SH_000113.JPG","03_07_SH_000114.JPG",3,7,"Deciduous","SH",2,"2/11/19","5/10/19","5/10/19","South Hammond","White-tailed Deer","Herbivore"
"98",149,37156600,1,"DEERWHITETAILED","03_07_SH_000115.JPG","03_07_SH_000116.JPG","03_07_SH_000117.JPG",3,7,"Deciduous","SH",2,"2/11/19","5/10/19","5/10/19","South Hammond","White-tailed Deer","Herbivore"
"99",150,37156601,2,"DEERWHITETAILED","03_07_SH_000118.JPG","03_07_SH_000119.JPG","03_07_SH_000120.JPG",3,7,"Deciduous","SH",2,"2/11/19","5/10/19","5/10/19","South Hammond","White-tailed Deer","Herbivore"
"100",151,37156602,1,"DEERWHITETAILED","03_07_SH_000121.JPG","03_07_SH_000122.JPG","03_07_SH_000123.JPG",3,7,"Deciduous","SH",2,"2/11/19","5/10/19","5/10/19","South Hammond","White-tailed Deer","Herbivore"
"101",157,39639315,1,"COYOTE","03_39_WF_000010.JPG","03_39_WF_000011.JPG","03_39_WF_000012.JPG",3,39,"Pine","WF",4,"9/29/19","12/6/19","12/6/19","Whiskey Flats","Coyote","Mesocarnivore"
"102",159,39639522,1,"DEERWHITETAILED","03_39_WF_000016.JPG","03_39_WF_000017.JPG","03_39_WF_000018.JPG",3,39,"Pine","WF",4,"9/29/19","12/6/19","12/6/19","Whiskey Flats","White-tailed Deer","Herbivore"
"103",162,39639884,1,"COYOTE","03_39_WF_000025.JPG","03_39_WF_000026.JPG","03_39_WF_000027.JPG",3,39,"Pine","WF",4,"9/29/19","12/6/19","12/6/19","Whiskey Flats","Coyote","Mesocarnivore"
"104",163,39639903,1,"DEERWHITETAILED","03_39_WF_000028.JPG","03_39_WF_000029.JPG","03_39_WF_000030.JPG",3,39,"Pine","WF",4,"9/29/19","12/6/19","12/6/19","Whiskey Flats","White-tailed Deer","Herbivore"
"105",164,39639949,1,"DEERWHITETAILED","03_39_WF_000031.JPG","03_39_WF_000032.JPG","03_39_WF_000033.JPG",3,39,"Pine","WF",4,"9/29/19","12/6/19","12/6/19","Whiskey Flats","White-tailed Deer","Herbivore"
"106",165,39639950,1,"DEERWHITETAILED","03_39_WF_000034.JPG","03_39_WF_000035.JPG","03_39_WF_000036.JPG",3,39,"Pine","WF",4,"9/29/19","12/6/19","12/6/19","Whiskey Flats","White-tailed Deer","Herbivore"
"107",166,39640010,1,"DEERWHITETAILED","03_39_WF_000037.JPG","03_39_WF_000038.JPG","03_39_WF_000039.JPG",3,39,"Pine","WF",4,"9/29/19","12/6/19","12/6/19","Whiskey Flats","White-tailed Deer","Herbivore"
"108",171,40303369,2,"SQUIRRELGRAY","04_12_BC_000007.JPG","04_12_BC_000008.JPG","04_12_BC_000009.JPG",4,12,"Deciduous","BC",4,"10/19/19","2/2/20","12/15/19","Beaver Creek","Gray Squirrel","Omnivore"
"109",172,40303372,2,"SQUIRRELGRAY","04_12_BC_000010.JPG","04_12_BC_000011.JPG","04_12_BC_000012.JPG",4,12,"Deciduous","BC",4,"10/19/19","2/2/20","12/15/19","Beaver Creek","Gray Squirrel","Omnivore"
"110",173,40303373,1,"SQUIRRELGRAY","04_12_BC_000013.JPG","04_12_BC_000014.JPG","04_12_BC_000015.JPG",4,12,"Deciduous","BC",4,"10/19/19","2/2/20","12/15/19","Beaver Creek","Gray Squirrel","Omnivore"
"111",174,40303374,1,"DEERWHITETAILED","04_12_BC_000016.JPG","04_12_BC_000017.JPG","04_12_BC_000018.JPG",4,12,"Deciduous","BC",4,"10/19/19","2/2/20","12/15/19","Beaver Creek","White-tailed Deer","Herbivore"
"112",175,40303375,1,"DEERWHITETAILED","04_12_BC_000019.JPG","04_12_BC_000020.JPG","04_12_BC_000021.JPG",4,12,"Deciduous","BC",4,"10/19/19","2/2/20","12/15/19","Beaver Creek","White-tailed Deer","Herbivore"
"113",176,40303376,1,"DEERWHITETAILED","04_12_BC_000022.JPG","04_12_BC_000023.JPG","04_12_BC_000024.JPG",4,12,"Deciduous","BC",4,"10/19/19","2/2/20","12/15/19","Beaver Creek","White-tailed Deer","Herbivore"
"114",177,40303377,1,"DEERWHITETAILED","04_12_BC_000025.JPG","04_12_BC_000026.JPG","04_12_BC_000027.JPG",4,12,"Deciduous","BC",4,"10/19/19","2/2/20","12/15/19","Beaver Creek","White-tailed Deer","Herbivore"
"115",178,40303378,1,"SQUIRRELGRAY","04_12_BC_000028.JPG","04_12_BC_000029.JPG","04_12_BC_000030.JPG",4,12,"Deciduous","BC",4,"10/19/19","2/2/20","12/15/19","Beaver Creek","Gray Squirrel","Omnivore"
"116",179,40303379,1,"SQUIRRELGRAY","04_12_BC_000031.JPG","04_12_BC_000032.JPG","04_12_BC_000033.JPG",4,12,"Deciduous","BC",4,"10/19/19","2/2/20","12/15/19","Beaver Creek","Gray Squirrel","Omnivore"
"117",180,40303382,1,"SQUIRRELGRAY","04_12_BC_000034.JPG","04_12_BC_000035.JPG","04_12_BC_000036.JPG",4,12,"Deciduous","BC",4,"10/19/19","2/2/20","12/15/19","Beaver Creek","Gray Squirrel","Omnivore"
"118",181,40303383,1,"SQUIRRELGRAY","04_12_BC_000037.JPG","04_12_BC_000038.JPG","04_12_BC_000039.JPG",4,12,"Deciduous","BC",4,"10/19/19","2/2/20","12/15/19","Beaver Creek","Gray Squirrel","Omnivore"
"119",183,40303387,1,"DEERWHITETAILED","04_12_BC_000043.JPG","04_12_BC_000044.JPG","04_12_BC_000045.JPG",4,12,"Deciduous","BC",4,"10/19/19","2/2/20","12/15/19","Beaver Creek","White-tailed Deer","Herbivore"
"120",184,40303388,1,"DEERWHITETAILED","04_12_BC_000046.JPG","04_12_BC_000047.JPG","04_12_BC_000048.JPG",4,12,"Deciduous","BC",4,"10/19/19","2/2/20","12/15/19","Beaver Creek","White-tailed Deer","Herbivore"
"121",185,40303396,1,"SQUIRRELGRAY","04_12_BC_000049.JPG","04_12_BC_000050.JPG","04_12_BC_000051.JPG",4,12,"Deciduous","BC",4,"10/19/19","2/2/20","12/15/19","Beaver Creek","Gray Squirrel","Omnivore"
"122",186,40303407,1,"SQUIRRELGRAY","04_12_BC_000052.JPG","04_12_BC_000053.JPG","04_12_BC_000054.JPG",4,12,"Deciduous","BC",4,"10/19/19","2/2/20","12/15/19","Beaver Creek","Gray Squirrel","Omnivore"
"123",187,40303408,1,"OTHERSMALLMAMMAL","04_12_BC_000055.JPG","04_12_BC_000056.JPG","04_12_BC_000057.JPG",4,12,"Deciduous","BC",4,"10/19/19","2/2/20","12/15/19","Beaver Creek","Other Small Mammal","Omnivore"
"124",188,40303410,1,"SQUIRRELGRAY","04_12_BC_000058.JPG","04_12_BC_000059.JPG","04_12_BC_000060.JPG",4,12,"Deciduous","BC",4,"10/19/19","2/2/20","12/15/19","Beaver Creek","Gray Squirrel","Omnivore"
"125",189,40303412,1,"OTHERSMALLMAMMAL","04_12_BC_000061.JPG","04_12_BC_000062.JPG","04_12_BC_000063.JPG",4,12,"Deciduous","BC",4,"10/19/19","2/2/20","12/15/19","Beaver Creek","Other Small Mammal","Omnivore"
"126",191,40303414,1,"RACCOON","04_12_BC_000067.JPG","04_12_BC_000068.JPG","04_12_BC_000069.JPG",4,12,"Deciduous","BC",4,"10/19/19","2/2/20","12/15/19","Beaver Creek","Raccoon","Mesocarnivore"
"127",192,40303415,1,"SQUIRRELGRAY","04_12_BC_000070.JPG","04_12_BC_000071.JPG","04_12_BC_000072.JPG",4,12,"Deciduous","BC",4,"10/19/19","2/2/20","12/15/19","Beaver Creek","Gray Squirrel","Omnivore"
"128",193,40303419,1,"SQUIRRELGRAY","04_12_BC_000073.JPG","04_12_BC_000074.JPG","04_12_BC_000075.JPG",4,12,"Deciduous","BC",4,"10/19/19","2/2/20","12/15/19","Beaver Creek","Gray Squirrel","Omnivore"
"129",194,40303423,1,"RACCOON","04_12_BC_000076.JPG","04_12_BC_000077.JPG","04_12_BC_000078.JPG",4,12,"Deciduous","BC",4,"10/19/19","2/2/20","12/15/19","Beaver Creek","Raccoon","Mesocarnivore"
"130",201,31428297,1,"DEERWHITETAILED","04_26_WF_000019.JPG","04_26_WF_000020.JPG","04_26_WF_000021.JPG",4,26,"Pine","WF",1,"11/17/18","1/31/19","1/10/19","Whiskey Flats","White-tailed Deer","Herbivore"
"131",202,31428298,1,"DEERWHITETAILED","04_26_WF_000022.JPG","04_26_WF_000023.JPG","04_26_WF_000024.JPG",4,26,"Pine","WF",1,"11/17/18","1/31/19","1/10/19","Whiskey Flats","White-tailed Deer","Herbivore"
"132",203,31428299,1,"DEERWHITETAILED","04_26_WF_000025.JPG","04_26_WF_000026.JPG","04_26_WF_000027.JPG",4,26,"Pine","WF",1,"11/17/18","1/31/19","1/10/19","Whiskey Flats","White-tailed Deer","Herbivore"
"133",204,31428300,1,"DEERWHITETAILED","04_26_WF_000028.JPG","04_26_WF_000029.JPG","04_26_WF_000030.JPG",4,26,"Pine","WF",1,"11/17/18","1/31/19","1/10/19","Whiskey Flats","White-tailed Deer","Herbivore"
"134",205,31428301,1,"COYOTE","04_26_WF_000031.JPG","04_26_WF_000032.JPG","04_26_WF_000033.JPG",4,26,"Pine","WF",1,"11/17/18","1/31/19","1/10/19","Whiskey Flats","Coyote","Mesocarnivore"
"135",206,31428302,1,"DEERWHITETAILED","04_26_WF_000034.JPG","04_26_WF_000035.JPG","04_26_WF_000036.JPG",4,26,"Pine","WF",1,"11/17/18","1/31/19","1/10/19","Whiskey Flats","White-tailed Deer","Herbivore"
"136",208,31428304,1,"COYOTE","04_26_WF_000040.JPG","04_26_WF_000041.JPG","04_26_WF_000042.JPG",4,26,"Pine","WF",1,"11/17/18","1/31/19","1/10/19","Whiskey Flats","Coyote","Mesocarnivore"
"137",210,31428306,1,"COYOTE","04_26_WF_000046.JPG","04_26_WF_000047.JPG","04_26_WF_000048.JPG",4,26,"Pine","WF",1,"11/17/18","1/31/19","1/10/19","Whiskey Flats","Coyote","Mesocarnivore"
"138",218,37156611,1,"DEERWHITETAILED","04_36_WF_000019.JPG","04_36_WF_000020.JPG","04_36_WF_000021.JPG",4,36,"Pine","WF",2,"1/31/19","5/15/19","3/26/19","Whiskey Flats","White-tailed Deer","Herbivore"
"139",219,37156612,1,"DEERWHITETAILED","04_36_WF_000022.JPG","04_36_WF_000023.JPG","04_36_WF_000024.JPG",4,36,"Pine","WF",2,"1/31/19","5/15/19","3/26/19","Whiskey Flats","White-tailed Deer","Herbivore"
"140",220,37156613,1,"DEERWHITETAILED","04_36_WF_000025.JPG","04_36_WF_000026.JPG","04_36_WF_000027.JPG",4,36,"Pine","WF",2,"1/31/19","5/15/19","3/26/19","Whiskey Flats","White-tailed Deer","Herbivore"
"141",221,37156614,1,"DEERWHITETAILED","04_36_WF_000028.JPG","04_36_WF_000029.JPG","04_36_WF_000030.JPG",4,36,"Pine","WF",2,"1/31/19","5/15/19","3/26/19","Whiskey Flats","White-tailed Deer","Herbivore"
"142",222,37156615,1,"DEERWHITETAILED","04_36_WF_000031.JPG","04_36_WF_000032.JPG","04_36_WF_000033.JPG",4,36,"Pine","WF",2,"1/31/19","5/15/19","3/26/19","Whiskey Flats","White-tailed Deer","Herbivore"
"143",224,37156617,1,"DEERWHITETAILED","04_36_WF_000037.JPG","04_36_WF_000038.JPG","04_36_WF_000039.JPG",4,36,"Pine","WF",2,"1/31/19","5/15/19","3/26/19","Whiskey Flats","White-tailed Deer","Herbivore"
"144",225,37156618,1,"DEERWHITETAILED","04_36_WF_000040.JPG","04_36_WF_000041.JPG","04_36_WF_000042.JPG",4,36,"Pine","WF",2,"1/31/19","5/15/19","3/26/19","Whiskey Flats","White-tailed Deer","Herbivore"
"145",226,37156619,1,"DEERWHITETAILED","04_36_WF_000043.JPG","04_36_WF_000044.JPG","04_36_WF_000045.JPG",4,36,"Pine","WF",2,"1/31/19","5/15/19","3/26/19","Whiskey Flats","White-tailed Deer","Herbivore"
"146",227,37156620,1,"DEERWHITETAILED","04_36_WF_000046.JPG","04_36_WF_000047.JPG","04_36_WF_000048.JPG",4,36,"Pine","WF",2,"1/31/19","5/15/19","3/26/19","Whiskey Flats","White-tailed Deer","Herbivore"
"147",228,37156621,1,"BLACKBEAR","04_36_WF_000049.JPG","04_36_WF_000050.JPG","04_36_WF_000051.JPG",4,36,"Pine","WF",2,"1/31/19","5/15/19","3/26/19","Whiskey Flats","Black Bear","Omnivore"
"148",229,37156622,1,"DEERWHITETAILED","04_36_WF_000052.JPG","04_36_WF_000053.JPG","04_36_WF_000054.JPG",4,36,"Pine","WF",2,"1/31/19","5/15/19","3/26/19","Whiskey Flats","White-tailed Deer","Herbivore"
"149",231,37156624,1,"DEERWHITETAILED","04_36_WF_000058.JPG","04_36_WF_000059.JPG","04_36_WF_000060.JPG",4,36,"Pine","WF",2,"1/31/19","5/15/19","3/26/19","Whiskey Flats","White-tailed Deer","Herbivore"
"150",232,37156625,1,"DEERWHITETAILED","04_36_WF_000061.JPG","04_36_WF_000062.JPG","04_36_WF_000063.JPG",4,36,"Pine","WF",2,"1/31/19","5/15/19","3/26/19","Whiskey Flats","White-tailed Deer","Herbivore"
"151",233,37156626,1,"DEERWHITETAILED","04_36_WF_000064.JPG","04_36_WF_000065.JPG","04_36_WF_000066.JPG",4,36,"Pine","WF",2,"1/31/19","5/15/19","3/26/19","Whiskey Flats","White-tailed Deer","Herbivore"
"152",234,37156627,1,"DEERWHITETAILED","04_36_WF_000067.JPG","04_36_WF_000068.JPG","04_36_WF_000069.JPG",4,36,"Pine","WF",2,"1/31/19","5/15/19","3/26/19","Whiskey Flats","White-tailed Deer","Herbivore"
"153",236,37156629,1,"DEERWHITETAILED","04_36_WF_000082.JPG","04_36_WF_000083.JPG",NA,4,36,"Pine","WF",2,"1/31/19","5/15/19","3/26/19","Whiskey Flats","White-tailed Deer","Herbivore"
"154",237,37156630,1,"DEERWHITETAILED","04_36_WF_000085.JPG","04_36_WF_000086.JPG",NA,4,36,"Pine","WF",2,"1/31/19","5/15/19","3/26/19","Whiskey Flats","White-tailed Deer","Herbivore"
"155",238,37156631,1,"FISHER","04_36_WF_000088.JPG","04_36_WF_000089.JPG",NA,4,36,"Pine","WF",2,"1/31/19","5/15/19","3/26/19","Whiskey Flats","Fisher","Mesocarnivore"
"156",239,37156632,1,"FISHER","04_36_WF_000091.JPG","04_36_WF_000092.JPG","04_36_WF_000093.JPG",4,36,"Pine","WF",2,"1/31/19","5/15/19","3/26/19","Whiskey Flats","Fisher","Mesocarnivore"
"157",240,37156633,1,"DEERWHITETAILED","04_36_WF_000097.JPG","04_36_WF_000098.JPG",NA,4,36,"Pine","WF",2,"1/31/19","5/15/19","3/26/19","Whiskey Flats","White-tailed Deer","Herbivore"
"158",241,37156634,1,"DEERWHITETAILED","04_36_WF_000100.JPG","04_36_WF_000101.JPG","04_36_WF_000102.JPG",4,36,"Pine","WF",2,"1/31/19","5/15/19","3/26/19","Whiskey Flats","White-tailed Deer","Herbivore"
"159",242,37156635,1,"DEERWHITETAILED","04_36_WF_000103.JPG","04_36_WF_000104.JPG","04_36_WF_000105.JPG",4,36,"Pine","WF",2,"1/31/19","5/15/19","3/26/19","Whiskey Flats","White-tailed Deer","Herbivore"
"160",243,37156636,1,"DEERWHITETAILED","04_36_WF_000106.JPG","04_36_WF_000107.JPG",NA,4,36,"Pine","WF",2,"1/31/19","5/15/19","3/26/19","Whiskey Flats","White-tailed Deer","Herbivore"
"161",244,37156637,1,"DEERWHITETAILED","04_36_WF_000109.JPG","04_36_WF_000110.JPG","04_36_WF_000111.JPG",4,36,"Pine","WF",2,"1/31/19","5/15/19","3/26/19","Whiskey Flats","White-tailed Deer","Herbivore"
"162",245,37156638,1,"DEERWHITETAILED","04_36_WF_000112.JPG","04_36_WF_000113.JPG","04_36_WF_000114.JPG",4,36,"Pine","WF",2,"1/31/19","5/15/19","3/26/19","Whiskey Flats","White-tailed Deer","Herbivore"
"163",246,37156639,2,"DEERWHITETAILED","04_36_WF_000115.JPG","04_36_WF_000116.JPG","04_36_WF_000117.JPG",4,36,"Pine","WF",2,"1/31/19","5/15/19","3/26/19","Whiskey Flats","White-tailed Deer","Herbivore"
"164",247,37156640,1,"DEERWHITETAILED","04_36_WF_000118.JPG","04_36_WF_000119.JPG","04_36_WF_000120.JPG",4,36,"Pine","WF",2,"1/31/19","5/15/19","3/26/19","Whiskey Flats","White-tailed Deer","Herbivore"
"165",248,37156641,1,"DEERWHITETAILED","04_36_WF_000121.JPG","04_36_WF_000122.JPG","04_36_WF_000123.JPG",4,36,"Pine","WF",2,"1/31/19","5/15/19","3/26/19","Whiskey Flats","White-tailed Deer","Herbivore"
"166",250,37156643,1,"FISHER","04_36_WF_000127.JPG","04_36_WF_000128.JPG","04_36_WF_000129.JPG",4,36,"Pine","WF",2,"1/31/19","5/15/19","3/26/19","Whiskey Flats","Fisher","Mesocarnivore"
"167",252,37156645,1,"DEERWHITETAILED","04_36_WF_000133.JPG","04_36_WF_000134.JPG","04_36_WF_000135.JPG",4,36,"Pine","WF",2,"1/31/19","5/15/19","3/26/19","Whiskey Flats","White-tailed Deer","Herbivore"
"168",253,37156646,1,"DEERWHITETAILED","04_36_WF_000136.JPG","04_36_WF_000137.JPG","04_36_WF_000138.JPG",4,36,"Pine","WF",2,"1/31/19","5/15/19","3/26/19","Whiskey Flats","White-tailed Deer","Herbivore"
"169",254,37156647,1,"DEERWHITETAILED","04_36_WF_000139.JPG","04_36_WF_000140.JPG","04_36_WF_000141.JPG",4,36,"Pine","WF",2,"1/31/19","5/15/19","3/26/19","Whiskey Flats","White-tailed Deer","Herbivore"
"170",256,37156649,1,"DEERWHITETAILED","04_36_WF_000145.JPG","04_36_WF_000146.JPG","04_36_WF_000147.JPG",4,36,"Pine","WF",2,"1/31/19","5/15/19","3/26/19","Whiskey Flats","White-tailed Deer","Herbivore"
"171",259,39638718,1,"DEERWHITETAILED","05_34_WF_000007.JPG","05_34_WF_000008.JPG","05_34_WF_000009.JPG",5,34,"Pine","WF",4,"9/29/19","12/6/19","12/6/19","Whiskey Flats","White-tailed Deer","Herbivore"
"172",260,39638795,1,"RACCOON","05_34_WF_000010.JPG","05_34_WF_000011.JPG","05_34_WF_000012.JPG",5,34,"Pine","WF",4,"9/29/19","12/6/19","12/6/19","Whiskey Flats","Raccoon","Mesocarnivore"
"173",262,39638963,1,"RACCOON","05_34_WF_000016.JPG","05_34_WF_000017.JPG","05_34_WF_000018.JPG",5,34,"Pine","WF",4,"9/29/19","12/6/19","12/6/19","Whiskey Flats","Raccoon","Mesocarnivore"
"174",263,39638997,1,"RACCOON","05_34_WF_000020.JPG","05_34_WF_000019.JPG","05_34_WF_000021.JPG",5,34,"Pine","WF",4,"9/29/19","12/6/19","12/6/19","Whiskey Flats","Raccoon","Mesocarnivore"
"175",266,39639379,1,"DEERWHITETAILED","05_34_WF_000028.JPG","05_34_WF_000029.JPG","05_34_WF_000030.JPG",5,34,"Pine","WF",4,"9/29/19","12/6/19","12/6/19","Whiskey Flats","White-tailed Deer","Herbivore"
"176",268,39639590,1,"DEERWHITETAILED","05_34_WF_000034.JPG","05_34_WF_000036.JPG","05_34_WF_000035.JPG",5,34,"Pine","WF",4,"9/29/19","12/6/19","12/6/19","Whiskey Flats","White-tailed Deer","Herbivore"
"177",270,39639703,2,"DEERWHITETAILED","05_34_WF_000040.JPG","05_34_WF_000041.JPG","05_34_WF_000042.JPG",5,34,"Pine","WF",4,"9/29/19","12/6/19","12/6/19","Whiskey Flats","White-tailed Deer","Herbivore"
"178",271,39639704,1,"DEERWHITETAILED","05_34_WF_000043.JPG","05_34_WF_000044.JPG","05_34_WF_000045.JPG",5,34,"Pine","WF",4,"9/29/19","12/6/19","12/6/19","Whiskey Flats","White-tailed Deer","Herbivore"
"179",272,39639851,1,"DEERWHITETAILED","05_34_WF_000046.JPG","05_34_WF_000047.JPG","05_34_WF_000048.JPG",5,34,"Pine","WF",4,"9/29/19","12/6/19","12/6/19","Whiskey Flats","White-tailed Deer","Herbivore"
"180",273,39639905,1,"DEERWHITETAILED","05_34_WF_000050.JPG","05_34_WF_000049.JPG",NA,5,34,"Pine","WF",4,"9/29/19","12/6/19","12/6/19","Whiskey Flats","White-tailed Deer","Herbivore"
"181",274,39639943,1,"DEERWHITETAILED","05_34_WF_000052.JPG","05_34_WF_000053.JPG","05_34_WF_000054.JPG",5,34,"Pine","WF",4,"9/29/19","12/6/19","12/6/19","Whiskey Flats","White-tailed Deer","Herbivore"
"182",275,39639959,1,"DEERWHITETAILED","05_34_WF_000055.JPG","05_34_WF_000056.JPG","05_34_WF_000057.JPG",5,34,"Pine","WF",4,"9/29/19","12/6/19","12/6/19","Whiskey Flats","White-tailed Deer","Herbivore"
"183",276,39639968,2,"DEERWHITETAILED","05_34_WF_000058.JPG","05_34_WF_000059.JPG","05_34_WF_000060.JPG",5,34,"Pine","WF",4,"9/29/19","12/6/19","12/6/19","Whiskey Flats","White-tailed Deer","Herbivore"
"184",278,39640002,1,"DEERWHITETAILED","05_34_WF_000064.JPG","05_34_WF_000065.JPG","05_34_WF_000066.JPG",5,34,"Pine","WF",4,"9/29/19","12/6/19","12/6/19","Whiskey Flats","White-tailed Deer","Herbivore"
"185",283,37820161,1,"DEERWHITETAILED","06_41_DON_05210004.JPG","06_41_DON_05210005.JPG","06_41_DON_05210006.JPG",6,41,"Deciduous","DON",3,"5/16/19","9/7/19","9/6/19","Donnerville","White-tailed Deer","Herbivore"
"186",284,37820162,2,"DEERWHITETAILED","06_41_DON_05210007.JPG","06_41_DON_05210008.JPG","06_41_DON_05210009.JPG",6,41,"Deciduous","DON",3,"5/16/19","9/7/19","9/6/19","Donnerville","White-tailed Deer","Herbivore"
"187",285,37820164,2,"DEERWHITETAILED","06_41_DON_05210010.JPG","06_41_DON_05210011.JPG","06_41_DON_05210012.JPG",6,41,"Deciduous","DON",3,"5/16/19","9/7/19","9/6/19","Donnerville","White-tailed Deer","Herbivore"
"188",286,37820165,2,"DEERWHITETAILED","06_41_DON_05210013.JPG","06_41_DON_05210014.JPG","06_41_DON_05210015.JPG",6,41,"Deciduous","DON",3,"5/16/19","9/7/19","9/6/19","Donnerville","White-tailed Deer","Herbivore"
"189",287,37820166,1,"DEERWHITETAILED","06_41_DON_05210016.JPG","06_41_DON_05210017.JPG","06_41_DON_05210018.JPG",6,41,"Deciduous","DON",3,"5/16/19","9/7/19","9/6/19","Donnerville","White-tailed Deer","Herbivore"
"190",288,37820201,1,"FOXRED","06_41_DON_05210019.JPG","06_41_DON_05210020.JPG",NA,6,41,"Deciduous","DON",3,"5/16/19","9/7/19","9/6/19","Donnerville","Red Fox","Mesocarnivore"
"191",290,37820259,1,"DEERWHITETAILED","06_41_DON_05220025.JPG","06_41_DON_05220026.JPG","06_41_DON_05220027.JPG",6,41,"Deciduous","DON",3,"5/16/19","9/7/19","9/6/19","Donnerville","White-tailed Deer","Herbivore"
"192",291,37820314,1,"COYOTE","06_41_DON_05240028.JPG","06_41_DON_05240029.JPG","06_41_DON_05240030.JPG",6,41,"Deciduous","DON",3,"5/16/19","9/7/19","9/6/19","Donnerville","Coyote","Mesocarnivore"
"193",292,37820331,1,"DEERWHITETAILED","06_41_DON_05250031.JPG","06_41_DON_05250032.JPG","06_41_DON_05250033.JPG",6,41,"Deciduous","DON",3,"5/16/19","9/7/19","9/6/19","Donnerville","White-tailed Deer","Herbivore"
"194",297,37820449,1,"DEERWHITETAILED","06_41_DON_05300055.JPG","06_41_DON_05300056.JPG","06_41_DON_05300057.JPG",6,41,"Deciduous","DON",3,"5/16/19","9/7/19","9/6/19","Donnerville","White-tailed Deer","Herbivore"
"195",298,37820452,1,"DEERWHITETAILED","06_41_DON_05300058.JPG","06_41_DON_05300059.JPG","06_41_DON_05300060.JPG",6,41,"Deciduous","DON",3,"5/16/19","9/7/19","9/6/19","Donnerville","White-tailed Deer","Herbivore"
"196",299,37820453,2,"DEERWHITETAILED","06_41_DON_05300061.JPG","06_41_DON_05300062.JPG","06_41_DON_05300063.JPG",6,41,"Deciduous","DON",3,"5/16/19","9/7/19","9/6/19","Donnerville","White-tailed Deer","Herbivore"
"197",300,37820454,2,"DEERWHITETAILED","06_41_DON_05300064.JPG","06_41_DON_05300065.JPG","06_41_DON_05300066.JPG",6,41,"Deciduous","DON",3,"5/16/19","9/7/19","9/6/19","Donnerville","White-tailed Deer","Herbivore"
"198",302,37820457,1,"DEERWHITETAILED","06_41_DON_05300070.JPG","06_41_DON_05300071.JPG","06_41_DON_05300072.JPG",6,41,"Deciduous","DON",3,"5/16/19","9/7/19","9/6/19","Donnerville","White-tailed Deer","Herbivore"
"199",303,37820460,1,"DEERWHITETAILED","06_41_DON_05310073.JPG","06_41_DON_05310074.JPG","06_41_DON_05310075.JPG",6,41,"Deciduous","DON",3,"5/16/19","9/7/19","9/6/19","Donnerville","White-tailed Deer","Herbivore"
"200",306,37820590,1,"DEERWHITETAILED","06_41_DON_06040082.JPG","06_41_DON_06040083.JPG","06_41_DON_06040084.JPG",6,41,"Deciduous","DON",3,"5/16/19","9/7/19","9/6/19","Donnerville","White-tailed Deer","Herbivore"
"201",309,37820998,1,"DEERWHITETAILED","06_41_DON_06140091.JPG","06_41_DON_06140092.JPG","06_41_DON_06140093.JPG",6,41,"Deciduous","DON",3,"5/16/19","9/7/19","9/6/19","Donnerville","White-tailed Deer","Herbivore"
"202",310,37821000,2,"DEERWHITETAILED","06_41_DON_06140094.JPG","06_41_DON_06140095.JPG","06_41_DON_06140096.JPG",6,41,"Deciduous","DON",3,"5/16/19","9/7/19","9/6/19","Donnerville","White-tailed Deer","Herbivore"
"203",311,37821171,1,"DEERWHITETAILED","06_41_DON_06150097.JPG","06_41_DON_06150098.JPG","06_41_DON_06150099.JPG",6,41,"Deciduous","DON",3,"5/16/19","9/7/19","9/6/19","Donnerville","White-tailed Deer","Herbivore"
"204",312,37821202,1,"COYOTE","06_41_DON_06160100.JPG","06_41_DON_06160101.JPG","06_41_DON_06160102.JPG",6,41,"Deciduous","DON",3,"5/16/19","9/7/19","9/6/19","Donnerville","Coyote","Mesocarnivore"
"205",313,37821358,1,"DEERWHITETAILED","06_41_DON_06200103.JPG","06_41_DON_06200104.JPG","06_41_DON_06200105.JPG",6,41,"Deciduous","DON",3,"5/16/19","9/7/19","9/6/19","Donnerville","White-tailed Deer","Herbivore"
"206",314,37821942,1,"DEERWHITETAILED","06_41_DON_06300109.JPG","06_41_DON_06300110.JPG","06_41_DON_06300111.JPG",6,41,"Deciduous","DON",3,"5/16/19","9/7/19","9/6/19","Donnerville","White-tailed Deer","Herbivore"
"207",315,37822056,1,"DEERWHITETAILED","06_41_DON_07060112.JPG","06_41_DON_07060113.JPG","06_41_DON_07060114.JPG",6,41,"Deciduous","DON",3,"5/16/19","9/7/19","9/6/19","Donnerville","White-tailed Deer","Herbivore"
"208",316,37822057,1,"DEERWHITETAILED","06_41_DON_07060115.JPG","06_41_DON_07060116.JPG","06_41_DON_07060117.JPG",6,41,"Deciduous","DON",3,"5/16/19","9/7/19","9/6/19","Donnerville","White-tailed Deer","Herbivore"
"209",318,37822110,2,"DEERWHITETAILED","06_41_DON_07090121.JPG","06_41_DON_07090122.JPG","06_41_DON_07090123.JPG",6,41,"Deciduous","DON",3,"5/16/19","9/7/19","9/6/19","Donnerville","White-tailed Deer","Herbivore"
"210",320,37822253,1,"DEERWHITETAILED","06_41_DON_07160127.JPG","06_41_DON_07160128.JPG","06_41_DON_07160129.JPG",6,41,"Deciduous","DON",3,"5/16/19","9/7/19","9/6/19","Donnerville","White-tailed Deer","Herbivore"
"211",321,37822308,1,"BLACKBEAR","06_41_DON_07190130.JPG","06_41_DON_07190131.JPG","06_41_DON_07190132.JPG",6,41,"Deciduous","DON",3,"5/16/19","9/7/19","9/6/19","Donnerville","Black Bear","Omnivore"
"212",322,37822322,1,"DEERWHITETAILED","06_41_DON_07190133.JPG","06_41_DON_07190134.JPG","06_41_DON_07190135.JPG",6,41,"Deciduous","DON",3,"5/16/19","9/7/19","9/6/19","Donnerville","White-tailed Deer","Herbivore"
"213",323,37822324,1,"DEERWHITETAILED","06_41_DON_07190136.JPG","06_41_DON_07190137.JPG","06_41_DON_07190138.JPG",6,41,"Deciduous","DON",3,"5/16/19","9/7/19","9/6/19","Donnerville","White-tailed Deer","Herbivore"
"214",324,37822325,1,"DEERWHITETAILED","06_41_DON_07190139.JPG","06_41_DON_07190140.JPG","06_41_DON_07190141.JPG",6,41,"Deciduous","DON",3,"5/16/19","9/7/19","9/6/19","Donnerville","White-tailed Deer","Herbivore"
"215",325,37822336,1,"DEERWHITETAILED","06_41_DON_07200142.JPG","06_41_DON_07200143.JPG","06_41_DON_07200144.JPG",6,41,"Deciduous","DON",3,"5/16/19","9/7/19","9/6/19","Donnerville","White-tailed Deer","Herbivore"
"216",326,37822368,2,"DEERWHITETAILED","06_41_DON_07220145.JPG","06_41_DON_07220146.JPG","06_41_DON_07220147.JPG",6,41,"Deciduous","DON",3,"5/16/19","9/7/19","9/6/19","Donnerville","White-tailed Deer","Herbivore"
"217",327,37822392,1,"DEERWHITETAILED","06_41_DON_07240148.JPG","06_41_DON_07240149.JPG","06_41_DON_07240150.JPG",6,41,"Deciduous","DON",3,"5/16/19","9/7/19","9/6/19","Donnerville","White-tailed Deer","Herbivore"
"218",329,37822746,1,"DEERWHITETAILED","06_41_DON_08070154.JPG","06_41_DON_08070155.JPG","06_41_DON_08070156.JPG",6,41,"Deciduous","DON",3,"5/16/19","9/7/19","9/6/19","Donnerville","White-tailed Deer","Herbivore"
"219",331,37822752,1,"DEERWHITETAILED","06_41_DON_08080160.JPG","06_41_DON_08080161.JPG","06_41_DON_08080162.JPG",6,41,"Deciduous","DON",3,"5/16/19","9/7/19","9/6/19","Donnerville","White-tailed Deer","Herbivore"
"220",332,37822954,1,"DEERWHITETAILED","06_41_DON_08130163.JPG","06_41_DON_08130164.JPG","06_41_DON_08130165.JPG",6,41,"Deciduous","DON",3,"5/16/19","9/7/19","9/6/19","Donnerville","White-tailed Deer","Herbivore"
"221",333,37822959,1,"DEERWHITETAILED","06_41_DON_08130166.JPG","06_41_DON_08130167.JPG","06_41_DON_08130168.JPG",6,41,"Deciduous","DON",3,"5/16/19","9/7/19","9/6/19","Donnerville","White-tailed Deer","Herbivore"
"222",334,37822961,1,"DEERWHITETAILED","06_41_DON_08130169.JPG","06_41_DON_08130170.JPG","06_41_DON_08130171.JPG",6,41,"Deciduous","DON",3,"5/16/19","9/7/19","9/6/19","Donnerville","White-tailed Deer","Herbivore"
"223",335,37823035,1,"DEERWHITETAILED","06_41_DON_08180172.JPG","06_41_DON_08180173.JPG","06_41_DON_08180174.JPG",6,41,"Deciduous","DON",3,"5/16/19","9/7/19","9/6/19","Donnerville","White-tailed Deer","Herbivore"
"224",347,37823716,1,"DEERWHITETAILED","06_41_DON_08310208.JPG","06_41_DON_08310209.JPG","06_41_DON_08310210.JPG",6,41,"Deciduous","DON",3,"5/16/19","9/7/19","9/6/19","Donnerville","White-tailed Deer","Herbivore"
"225",348,37823979,1,"DEERWHITETAILED","06_41_DON_09060211.JPG","06_41_DON_09060212.JPG","06_41_DON_09060213.JPG",6,41,"Deciduous","DON",3,"5/16/19","9/7/19","9/6/19","Donnerville","White-tailed Deer","Herbivore"
"226",415,39638670,1,"PORCUPINE","07_42_WHIP_000025.JPG","07_42_WHIP_000026.JPG","07_42_WHIP_000027.JPG",7,42,"Pine","WHIP",4,"9/27/19","11/12/19","11/11/19","Whippoorwill Corners","Porcupine","Herbivore"
"227",417,39638705,1,"CHIPMUNK","07_42_WHIP_000034.JPG","07_42_WHIP_000035.JPG","07_42_WHIP_000036.JPG",7,42,"Pine","WHIP",4,"9/27/19","11/12/19","11/11/19","Whippoorwill Corners","Chipmunk","Omnivore"
"228",418,39638715,1,"FISHER","07_42_WHIP_000037.JPG","07_42_WHIP_000038.JPG","07_42_WHIP_000039.JPG",7,42,"Pine","WHIP",4,"9/27/19","11/12/19","11/11/19","Whippoorwill Corners","Fisher","Mesocarnivore"
"229",419,39638724,1,"DEERWHITETAILED","07_42_WHIP_000040.JPG","07_42_WHIP_000041.JPG","07_42_WHIP_000042.JPG",7,42,"Pine","WHIP",4,"9/27/19","11/12/19","11/11/19","Whippoorwill Corners","White-tailed Deer","Herbivore"
"230",423,39638787,1,"COYOTE","07_42_WHIP_000052.JPG","07_42_WHIP_000053.JPG","07_42_WHIP_000054.JPG",7,42,"Pine","WHIP",4,"9/27/19","11/12/19","11/11/19","Whippoorwill Corners","Coyote","Mesocarnivore"
"231",424,39638789,2,"CHIPMUNK","07_42_WHIP_000056.JPG","07_42_WHIP_000055.JPG","07_42_WHIP_000057.JPG",7,42,"Pine","WHIP",4,"9/27/19","11/12/19","11/11/19","Whippoorwill Corners","Chipmunk","Omnivore"
"232",425,39638790,1,"DEERWHITETAILED","07_42_WHIP_000058.JPG","07_42_WHIP_000059.JPG","07_42_WHIP_000060.JPG",7,42,"Pine","WHIP",4,"9/27/19","11/12/19","11/11/19","Whippoorwill Corners","White-tailed Deer","Herbivore"
"233",426,39638793,1,"RACCOON","07_42_WHIP_000061.JPG","07_42_WHIP_000063.JPG","07_42_WHIP_000062.JPG",7,42,"Pine","WHIP",4,"9/27/19","11/12/19","11/11/19","Whippoorwill Corners","Raccoon","Mesocarnivore"
"234",427,39638822,2,"SQUIRRELGRAY","07_42_WHIP_000064.JPG","07_42_WHIP_000065.JPG","07_42_WHIP_000066.JPG",7,42,"Pine","WHIP",4,"9/27/19","11/12/19","11/11/19","Whippoorwill Corners","Gray Squirrel","Omnivore"
"235",428,39638827,1,"SQUIRRELGRAY","07_42_WHIP_000067.JPG","07_42_WHIP_000068.JPG","07_42_WHIP_000069.JPG",7,42,"Pine","WHIP",4,"9/27/19","11/12/19","11/11/19","Whippoorwill Corners","Gray Squirrel","Omnivore"
"236",429,39638832,1,"DEERWHITETAILED","07_42_WHIP_000070.JPG","07_42_WHIP_000071.JPG","07_42_WHIP_000072.JPG",7,42,"Pine","WHIP",4,"9/27/19","11/12/19","11/11/19","Whippoorwill Corners","White-tailed Deer","Herbivore"
"237",431,39638896,2,"OTHERSMALLMAMMAL","07_42_WHIP_000076.JPG","07_42_WHIP_000077.JPG","07_42_WHIP_000078.JPG",7,42,"Pine","WHIP",4,"9/27/19","11/12/19","11/11/19","Whippoorwill Corners","Other Small Mammal","Omnivore"
"238",432,39638905,2,"SQUIRRELGRAY","07_42_WHIP_000079.JPG","07_42_WHIP_000080.JPG","07_42_WHIP_000081.JPG",7,42,"Pine","WHIP",4,"9/27/19","11/12/19","11/11/19","Whippoorwill Corners","Gray Squirrel","Omnivore"
"239",433,39638907,1,"SQUIRRELGRAY","07_42_WHIP_000082.JPG","07_42_WHIP_000083.JPG","07_42_WHIP_000084.JPG",7,42,"Pine","WHIP",4,"9/27/19","11/12/19","11/11/19","Whippoorwill Corners","Gray Squirrel","Omnivore"
"240",434,39638923,1,"RACCOON","07_42_WHIP_000085.JPG","07_42_WHIP_000086.JPG","07_42_WHIP_000087.JPG",7,42,"Pine","WHIP",4,"9/27/19","11/12/19","11/11/19","Whippoorwill Corners","Raccoon","Mesocarnivore"
"241",435,39638941,2,"CHIPMUNK","07_42_WHIP_000088.JPG","07_42_WHIP_000089.JPG","07_42_WHIP_000090.JPG",7,42,"Pine","WHIP",4,"9/27/19","11/12/19","11/11/19","Whippoorwill Corners","Chipmunk","Omnivore"
"242",437,39638943,2,"SQUIRRELGRAY","07_42_WHIP_000094.JPG","07_42_WHIP_000095.JPG","07_42_WHIP_000096.JPG",7,42,"Pine","WHIP",4,"9/27/19","11/12/19","11/11/19","Whippoorwill Corners","Gray Squirrel","Omnivore"
"243",438,39638945,1,"SQUIRRELGRAY","07_42_WHIP_000097.JPG","07_42_WHIP_000098.JPG","07_42_WHIP_000099.JPG",7,42,"Pine","WHIP",4,"9/27/19","11/12/19","11/11/19","Whippoorwill Corners","Gray Squirrel","Omnivore"
"244",439,39638946,1,"SQUIRRELGRAY","07_42_WHIP_000100.JPG","07_42_WHIP_000101.JPG","07_42_WHIP_000102.JPG",7,42,"Pine","WHIP",4,"9/27/19","11/12/19","11/11/19","Whippoorwill Corners","Gray Squirrel","Omnivore"
"245",441,39638960,1,"COYOTE","07_42_WHIP_000106.JPG","07_42_WHIP_000107.JPG","07_42_WHIP_000108.JPG",7,42,"Pine","WHIP",4,"9/27/19","11/12/19","11/11/19","Whippoorwill Corners","Coyote","Mesocarnivore"
"246",442,39638990,1,"CHIPMUNK","07_42_WHIP_000109.JPG","07_42_WHIP_000110.JPG","07_42_WHIP_000111.JPG",7,42,"Pine","WHIP",4,"9/27/19","11/12/19","11/11/19","Whippoorwill Corners","Chipmunk","Omnivore"
"247",443,39638991,1,"SQUIRRELGRAY","07_42_WHIP_000112.JPG","07_42_WHIP_000113.JPG","07_42_WHIP_000114.JPG",7,42,"Pine","WHIP",4,"9/27/19","11/12/19","11/11/19","Whippoorwill Corners","Gray Squirrel","Omnivore"
"248",444,39638992,1,"CHIPMUNK","07_42_WHIP_000115.JPG","07_42_WHIP_000116.JPG","07_42_WHIP_000117.JPG",7,42,"Pine","WHIP",4,"9/27/19","11/12/19","11/11/19","Whippoorwill Corners","Chipmunk","Omnivore"
"249",445,39638993,1,"CHIPMUNK","07_42_WHIP_000118.JPG","07_42_WHIP_000119.JPG","07_42_WHIP_000120.JPG",7,42,"Pine","WHIP",4,"9/27/19","11/12/19","11/11/19","Whippoorwill Corners","Chipmunk","Omnivore"
"250",446,39639006,1,"CHIPMUNK","07_42_WHIP_000121.JPG","07_42_WHIP_000122.JPG","07_42_WHIP_000123.JPG",7,42,"Pine","WHIP",4,"9/27/19","11/12/19","11/11/19","Whippoorwill Corners","Chipmunk","Omnivore"
"251",447,39639036,1,"CHIPMUNK","07_42_WHIP_000124.JPG","07_42_WHIP_000125.JPG","07_42_WHIP_000126.JPG",7,42,"Pine","WHIP",4,"9/27/19","11/12/19","11/11/19","Whippoorwill Corners","Chipmunk","Omnivore"
"252",448,39639039,1,"CHIPMUNK","07_42_WHIP_000127.JPG","07_42_WHIP_000128.JPG","07_42_WHIP_000129.JPG",7,42,"Pine","WHIP",4,"9/27/19","11/12/19","11/11/19","Whippoorwill Corners","Chipmunk","Omnivore"
"253",449,39639055,1,"SQUIRRELGRAY","07_42_WHIP_000131.JPG","07_42_WHIP_000130.JPG","07_42_WHIP_000132.JPG",7,42,"Pine","WHIP",4,"9/27/19","11/12/19","11/11/19","Whippoorwill Corners","Gray Squirrel","Omnivore"
"254",450,39639057,1,"FISHER","07_42_WHIP_000134.JPG","07_42_WHIP_000133.JPG","07_42_WHIP_000135.JPG",7,42,"Pine","WHIP",4,"9/27/19","11/12/19","11/11/19","Whippoorwill Corners","Fisher","Mesocarnivore"
"255",451,39639066,2,"CHIPMUNK","07_42_WHIP_000136.JPG","07_42_WHIP_000137.JPG","07_42_WHIP_000138.JPG",7,42,"Pine","WHIP",4,"9/27/19","11/12/19","11/11/19","Whippoorwill Corners","Chipmunk","Omnivore"
"256",452,39639197,1,"RACCOON","07_42_WHIP_000139.JPG","07_42_WHIP_000140.JPG","07_42_WHIP_000141.JPG",7,42,"Pine","WHIP",4,"9/27/19","11/12/19","11/11/19","Whippoorwill Corners","Raccoon","Mesocarnivore"
"257",453,39639213,2,"SQUIRRELGRAY","07_42_WHIP_000142.JPG","07_42_WHIP_000143.JPG","07_42_WHIP_000144.JPG",7,42,"Pine","WHIP",4,"9/27/19","11/12/19","11/11/19","Whippoorwill Corners","Gray Squirrel","Omnivore"
"258",455,39639310,1,"SQUIRRELGRAY","07_42_WHIP_000148.JPG","07_42_WHIP_000149.JPG","07_42_WHIP_000150.JPG",7,42,"Pine","WHIP",4,"9/27/19","11/12/19","11/11/19","Whippoorwill Corners","Gray Squirrel","Omnivore"
"259",459,39639363,1,"RACCOON","07_42_WHIP_000160.JPG","07_42_WHIP_000161.JPG","07_42_WHIP_000162.JPG",7,42,"Pine","WHIP",4,"9/27/19","11/12/19","11/11/19","Whippoorwill Corners","Raccoon","Mesocarnivore"
"260",460,39639369,1,"SQUIRRELGRAY","07_42_WHIP_000163.JPG","07_42_WHIP_000165.JPG","07_42_WHIP_000164.JPG",7,42,"Pine","WHIP",4,"9/27/19","11/12/19","11/11/19","Whippoorwill Corners","Gray Squirrel","Omnivore"
"261",461,39639370,1,"SQUIRRELGRAY","07_42_WHIP_000166.JPG","07_42_WHIP_000167.JPG","07_42_WHIP_000168.JPG",7,42,"Pine","WHIP",4,"9/27/19","11/12/19","11/11/19","Whippoorwill Corners","Gray Squirrel","Omnivore"
"262",462,39639374,1,"RACCOON","07_42_WHIP_000169.JPG","07_42_WHIP_000170.JPG","07_42_WHIP_000171.JPG",7,42,"Pine","WHIP",4,"9/27/19","11/12/19","11/11/19","Whippoorwill Corners","Raccoon","Mesocarnivore"
"263",464,39639415,1,"SQUIRRELGRAY","07_42_WHIP_000175.JPG","07_42_WHIP_000176.JPG","07_42_WHIP_000177.JPG",7,42,"Pine","WHIP",4,"9/27/19","11/12/19","11/11/19","Whippoorwill Corners","Gray Squirrel","Omnivore"
"264",465,39639441,1,"SQUIRRELGRAY","07_42_WHIP_000178.JPG","07_42_WHIP_000179.JPG","07_42_WHIP_000180.JPG",7,42,"Pine","WHIP",4,"9/27/19","11/12/19","11/11/19","Whippoorwill Corners","Gray Squirrel","Omnivore"
"265",466,39639447,1,"CHIPMUNK","07_42_WHIP_000181.JPG","07_42_WHIP_000182.JPG","07_42_WHIP_000183.JPG",7,42,"Pine","WHIP",4,"9/27/19","11/12/19","11/11/19","Whippoorwill Corners","Chipmunk","Omnivore"
"266",467,39639449,1,"CHIPMUNK","07_42_WHIP_000184.JPG","07_42_WHIP_000185.JPG","07_42_WHIP_000186.JPG",7,42,"Pine","WHIP",4,"9/27/19","11/12/19","11/11/19","Whippoorwill Corners","Chipmunk","Omnivore"
"267",468,39639456,2,"SQUIRRELGRAY","07_42_WHIP_000187.JPG","07_42_WHIP_000188.JPG","07_42_WHIP_000189.JPG",7,42,"Pine","WHIP",4,"9/27/19","11/12/19","11/11/19","Whippoorwill Corners","Gray Squirrel","Omnivore"
"268",469,39639484,1,"SQUIRRELGRAY","07_42_WHIP_000190.JPG","07_42_WHIP_000191.JPG",NA,7,42,"Pine","WHIP",4,"9/27/19","11/12/19","11/11/19","Whippoorwill Corners","Gray Squirrel","Omnivore"
"269",470,39639491,2,"PORCUPINE","07_42_WHIP_000193.JPG","07_42_WHIP_000194.JPG","07_42_WHIP_000195.JPG",7,42,"Pine","WHIP",4,"9/27/19","11/12/19","11/11/19","Whippoorwill Corners","Porcupine","Herbivore"
"270",472,39639515,1,"RACCOON","07_42_WHIP_000199.JPG","07_42_WHIP_000200.JPG","07_42_WHIP_000201.JPG",7,42,"Pine","WHIP",4,"9/27/19","11/12/19","11/11/19","Whippoorwill Corners","Raccoon","Mesocarnivore"
"271",473,39639519,1,"RACCOON","07_42_WHIP_000202.JPG","07_42_WHIP_000203.JPG","07_42_WHIP_000204.JPG",7,42,"Pine","WHIP",4,"9/27/19","11/12/19","11/11/19","Whippoorwill Corners","Raccoon","Mesocarnivore"
"272",474,39639573,1,"OTHERSMALLMAMMAL","07_42_WHIP_000205.JPG","07_42_WHIP_000206.JPG","07_42_WHIP_000207.JPG",7,42,"Pine","WHIP",4,"9/27/19","11/12/19","11/11/19","Whippoorwill Corners","Other Small Mammal","Omnivore"
"273",475,39639578,1,"CHIPMUNK","07_42_WHIP_000208.JPG","07_42_WHIP_000209.JPG","07_42_WHIP_000210.JPG",7,42,"Pine","WHIP",4,"9/27/19","11/12/19","11/11/19","Whippoorwill Corners","Chipmunk","Omnivore"
"274",476,39639583,1,"CHIPMUNK","07_42_WHIP_000211.JPG","07_42_WHIP_000212.JPG","07_42_WHIP_000213.JPG",7,42,"Pine","WHIP",4,"9/27/19","11/12/19","11/11/19","Whippoorwill Corners","Chipmunk","Omnivore"
"275",477,39639589,1,"SQUIRRELGRAY","07_42_WHIP_000214.JPG","07_42_WHIP_000215.JPG","07_42_WHIP_000216.JPG",7,42,"Pine","WHIP",4,"9/27/19","11/12/19","11/11/19","Whippoorwill Corners","Gray Squirrel","Omnivore"
"276",478,39639593,1,"DEERWHITETAILED","07_42_WHIP_000217.JPG","07_42_WHIP_000218.JPG","07_42_WHIP_000219.JPG",7,42,"Pine","WHIP",4,"9/27/19","11/12/19","11/11/19","Whippoorwill Corners","White-tailed Deer","Herbivore"
"277",479,39639613,1,"SQUIRRELGRAY","07_42_WHIP_000220.JPG","07_42_WHIP_000221.JPG","07_42_WHIP_000222.JPG",7,42,"Pine","WHIP",4,"9/27/19","11/12/19","11/11/19","Whippoorwill Corners","Gray Squirrel","Omnivore"
"278",480,39639661,1,"DEERWHITETAILED","07_42_WHIP_000223.JPG","07_42_WHIP_000224.JPG","07_42_WHIP_000225.JPG",7,42,"Pine","WHIP",4,"9/27/19","11/12/19","11/11/19","Whippoorwill Corners","White-tailed Deer","Herbivore"
"279",481,39639713,1,"SQUIRRELGRAY","07_42_WHIP_000226.JPG","07_42_WHIP_000227.JPG","07_42_WHIP_000228.JPG",7,42,"Pine","WHIP",4,"9/27/19","11/12/19","11/11/19","Whippoorwill Corners","Gray Squirrel","Omnivore"
"280",482,39639802,1,"OTHERSMALLMAMMAL","07_42_WHIP_000229.JPG","07_42_WHIP_000230.JPG","07_42_WHIP_000231.JPG",7,42,"Pine","WHIP",4,"9/27/19","11/12/19","11/11/19","Whippoorwill Corners","Other Small Mammal","Omnivore"
"281",484,39639868,1,"DEERWHITETAILED","07_42_WHIP_000235.JPG","07_42_WHIP_000236.JPG","07_42_WHIP_000237.JPG",7,42,"Pine","WHIP",4,"9/27/19","11/12/19","11/11/19","Whippoorwill Corners","White-tailed Deer","Herbivore"
"282",485,39639929,1,"DEERWHITETAILED","07_42_WHIP_000238.JPG","07_42_WHIP_000239.JPG","07_42_WHIP_000240.JPG",7,42,"Pine","WHIP",4,"9/27/19","11/12/19","11/11/19","Whippoorwill Corners","White-tailed Deer","Herbivore"
"283",486,37160179,1,"DEERWHITETAILED","08_11_DEG_000001.JPG","08_11_DEG_000002.JPG","08_11_DEG_000003.JPG",8,11,"Pine","DEG",2,"2/7/19","5/13/19","4/18/19","Degrasse","White-tailed Deer","Herbivore"
"284",487,37160180,2,"DEERWHITETAILED","08_11_DEG_000004.JPG","08_11_DEG_000005.JPG","08_11_DEG_000006.JPG",8,11,"Pine","DEG",2,"2/7/19","5/13/19","4/18/19","Degrasse","White-tailed Deer","Herbivore"
"285",488,37160181,1,"DEERWHITETAILED","08_11_DEG_000007.JPG","08_11_DEG_000008.JPG","08_11_DEG_000009.JPG",8,11,"Pine","DEG",2,"2/7/19","5/13/19","4/18/19","Degrasse","White-tailed Deer","Herbivore"
"286",489,37160182,1,"DEERWHITETAILED","08_11_DEG_000010.JPG","08_11_DEG_000011.JPG","08_11_DEG_000012.JPG",8,11,"Pine","DEG",2,"2/7/19","5/13/19","4/18/19","Degrasse","White-tailed Deer","Herbivore"
"287",490,37160183,1,"DEERWHITETAILED","08_11_DEG_000013.JPG","08_11_DEG_000014.JPG","08_11_DEG_000015.JPG",8,11,"Pine","DEG",2,"2/7/19","5/13/19","4/18/19","Degrasse","White-tailed Deer","Herbivore"
"288",491,31428313,1,"DEERWHITETAILED","09_25_WF_000001.JPG","09_25_WF_000002.JPG","09_25_WF_000003.JPG",9,25,"Pine","WF",1,"11/17/18","1/31/19","12/2/18","Whiskey Flats","White-tailed Deer","Herbivore"
"289",492,31428314,1,"SQUIRRELGRAY","09_25_WF_000004.JPG","09_25_WF_000005.JPG","09_25_WF_000006.JPG",9,25,"Pine","WF",1,"11/17/18","1/31/19","12/2/18","Whiskey Flats","Gray Squirrel","Omnivore"
"290",494,37160232,1,"DEERWHITETAILED","10_25_SH_000004.JPG","10_25_SH_000005.JPG","10_25_SH_000006.JPG",10,25,"Deciduous","SH",2,"2/11/19","5/10/19","5/10/19","South Hammond","White-tailed Deer","Herbivore"
"291",495,37160233,1,"DEERWHITETAILED","10_25_SH_000007.JPG","10_25_SH_000008.JPG","10_25_SH_000009.JPG",10,25,"Deciduous","SH",2,"2/11/19","5/10/19","5/10/19","South Hammond","White-tailed Deer","Herbivore"
"292",496,37160234,1,"DEERWHITETAILED","10_25_SH_000010.JPG","10_25_SH_000011.JPG","10_25_SH_000012.JPG",10,25,"Deciduous","SH",2,"2/11/19","5/10/19","5/10/19","South Hammond","White-tailed Deer","Herbivore"
"293",760,41008453,1,"SQUIRRELGRAY","10_35_DON_000001.JPG","10_35_DON_000002.JPG","10_35_DON_000003.JPG",10,35,"Deciduous","DON",4,"9/17/19","11/15/19","11/15/19","Donnerville","Gray Squirrel","Omnivore"
"294",761,41008454,1,"CHIPMUNK","10_35_DON_000004.JPG","10_35_DON_000005.JPG","10_35_DON_000006.JPG",10,35,"Deciduous","DON",4,"9/17/19","11/15/19","11/15/19","Donnerville","Chipmunk","Omnivore"
"295",762,41008455,1,"OTHERSMALLMAMMAL","10_35_DON_000007.JPG","10_35_DON_000008.JPG","10_35_DON_000009.JPG",10,35,"Deciduous","DON",4,"9/17/19","11/15/19","11/15/19","Donnerville","Other Small Mammal","Omnivore"
"296",763,41008463,1,"DEERWHITETAILED","10_35_DON_000010.JPG","10_35_DON_000011.JPG","10_35_DON_000012.JPG",10,35,"Deciduous","DON",4,"9/17/19","11/15/19","11/15/19","Donnerville","White-tailed Deer","Herbivore"
"297",804,41008513,1,"SQUIRRELGRAY","10_35_DON_000133.JPG","10_35_DON_000134.JPG","10_35_DON_000135.JPG",10,35,"Deciduous","DON",4,"9/17/19","11/15/19","11/15/19","Donnerville","Gray Squirrel","Omnivore"
"298",810,41008521,1,"CHIPMUNK","10_35_DON_000151.JPG","10_35_DON_000152.JPG","10_35_DON_000153.JPG",10,35,"Deciduous","DON",4,"9/17/19","11/15/19","11/15/19","Donnerville","Chipmunk","Omnivore"
"299",813,41008524,1,"DEERWHITETAILED","10_35_DON_000160.JPG","10_35_DON_000161.JPG","10_35_DON_000162.JPG",10,35,"Deciduous","DON",4,"9/17/19","11/15/19","11/15/19","Donnerville","White-tailed Deer","Herbivore"
"300",818,41008541,1,"SQUIRRELGRAY","10_35_DON_000175.JPG","10_35_DON_000176.JPG","10_35_DON_000177.JPG",10,35,"Deciduous","DON",4,"9/17/19","11/15/19","11/15/19","Donnerville","Gray Squirrel","Omnivore"
"301",819,41008542,1,"RACCOON","10_35_DON_000178.JPG","10_35_DON_000179.JPG","10_35_DON_000180.JPG",10,35,"Deciduous","DON",4,"9/17/19","11/15/19","11/15/19","Donnerville","Raccoon","Mesocarnivore"
"302",820,41008543,1,"OTHERSMALLMAMMAL","10_35_DON_000181.JPG","10_35_DON_000182.JPG","10_35_DON_000183.JPG",10,35,"Deciduous","DON",4,"9/17/19","11/15/19","11/15/19","Donnerville","Other Small Mammal","Omnivore"
"303",821,41008544,1,"OTHERSMALLMAMMAL","10_35_DON_000184.JPG","10_35_DON_000185.JPG","10_35_DON_000186.JPG",10,35,"Deciduous","DON",4,"9/17/19","11/15/19","11/15/19","Donnerville","Other Small Mammal","Omnivore"
"304",823,31428315,1,"DEERWHITETAILED","11_13_BC_000002.JPG","11_13_BC_000001.JPG","11_13_BC_000003.JPG",11,13,"Deciduous","BC",1,"11/15/18","3/4/19","3/4/19","Beaver Creek","White-tailed Deer","Herbivore"
"305",824,31428316,1,"DEERWHITETAILED","11_13_BC_000004.JPG","11_13_BC_000005.JPG","11_13_BC_000006.JPG",11,13,"Deciduous","BC",1,"11/15/18","3/4/19","3/4/19","Beaver Creek","White-tailed Deer","Herbivore"
"306",827,31428319,2,"PORCUPINE","11_13_BC_000013.JPG","11_13_BC_000014.JPG","11_13_BC_000015.JPG",11,13,"Deciduous","BC",1,"11/15/18","3/4/19","3/4/19","Beaver Creek","Porcupine","Herbivore"
"307",829,31428321,1,"SQUIRRELGRAY","11_13_BC_000019.JPG","11_13_BC_000020.JPG","11_13_BC_000021.JPG",11,13,"Deciduous","BC",1,"11/15/18","3/4/19","3/4/19","Beaver Creek","Gray Squirrel","Omnivore"
"308",830,31428322,1,"SQUIRRELGRAY","11_13_BC_000022.JPG","11_13_BC_000023.JPG","11_13_BC_000024.JPG",11,13,"Deciduous","BC",1,"11/15/18","3/4/19","3/4/19","Beaver Creek","Gray Squirrel","Omnivore"
"309",831,31428323,1,"SQUIRRELGRAY","11_13_BC_000025.JPG","11_13_BC_000026.JPG","11_13_BC_000027.JPG",11,13,"Deciduous","BC",1,"11/15/18","3/4/19","3/4/19","Beaver Creek","Gray Squirrel","Omnivore"
"310",832,31428324,2,"SQUIRRELGRAY","11_13_BC_000028.JPG","11_13_BC_000029.JPG","11_13_BC_000030.JPG",11,13,"Deciduous","BC",1,"11/15/18","3/4/19","3/4/19","Beaver Creek","Gray Squirrel","Omnivore"
"311",833,31428325,1,"SQUIRRELGRAY","11_13_BC_000031.JPG","11_13_BC_000032.JPG","11_13_BC_000033.JPG",11,13,"Deciduous","BC",1,"11/15/18","3/4/19","3/4/19","Beaver Creek","Gray Squirrel","Omnivore"
"312",834,31428326,2,"SQUIRRELGRAY","11_13_BC_000034.JPG","11_13_BC_000035.JPG","11_13_BC_000036.JPG",11,13,"Deciduous","BC",1,"11/15/18","3/4/19","3/4/19","Beaver Creek","Gray Squirrel","Omnivore"
"313",836,31428328,1,"SQUIRRELGRAY","11_13_BC_000040.JPG","11_13_BC_000041.JPG","11_13_BC_000042.JPG",11,13,"Deciduous","BC",1,"11/15/18","3/4/19","3/4/19","Beaver Creek","Gray Squirrel","Omnivore"
"314",837,31428329,1,"SQUIRRELGRAY","11_13_BC_000043.JPG","11_13_BC_000044.JPG","11_13_BC_000045.JPG",11,13,"Deciduous","BC",1,"11/15/18","3/4/19","3/4/19","Beaver Creek","Gray Squirrel","Omnivore"
"315",838,31428330,1,"PORCUPINE","11_13_BC_000046.JPG","11_13_BC_000047.JPG","11_13_BC_000048.JPG",11,13,"Deciduous","BC",1,"11/15/18","3/4/19","3/4/19","Beaver Creek","Porcupine","Herbivore"
"316",839,31428331,2,"PORCUPINE","11_13_BC_000049.JPG","11_13_BC_000050.JPG","11_13_BC_000051.JPG",11,13,"Deciduous","BC",1,"11/15/18","3/4/19","3/4/19","Beaver Creek","Porcupine","Herbivore"
"317",840,31428332,2,"SQUIRRELGRAY","11_13_BC_000052.JPG","11_13_BC_000053.JPG","11_13_BC_000054.JPG",11,13,"Deciduous","BC",1,"11/15/18","3/4/19","3/4/19","Beaver Creek","Gray Squirrel","Omnivore"
"318",841,31428333,1,"SQUIRRELGRAY","11_13_BC_000055.JPG","11_13_BC_000056.JPG","11_13_BC_000057.JPG",11,13,"Deciduous","BC",1,"11/15/18","3/4/19","3/4/19","Beaver Creek","Gray Squirrel","Omnivore"
"319",843,31428335,1,"SQUIRRELGRAY","11_13_BC_000061.JPG","11_13_BC_000062.JPG","11_13_BC_000063.JPG",11,13,"Deciduous","BC",1,"11/15/18","3/4/19","3/4/19","Beaver Creek","Gray Squirrel","Omnivore"
"320",844,31428336,1,"SQUIRRELGRAY","11_13_BC_000064.JPG","11_13_BC_000065.JPG","11_13_BC_000066.JPG",11,13,"Deciduous","BC",1,"11/15/18","3/4/19","3/4/19","Beaver Creek","Gray Squirrel","Omnivore"
"321",845,31428337,1,"SQUIRRELGRAY","11_13_BC_000067.JPG","11_13_BC_000068.JPG","11_13_BC_000069.JPG",11,13,"Deciduous","BC",1,"11/15/18","3/4/19","3/4/19","Beaver Creek","Gray Squirrel","Omnivore"
"322",846,31428338,1,"PORCUPINE","11_13_BC_000070.JPG","11_13_BC_000071.JPG","11_13_BC_000072.JPG",11,13,"Deciduous","BC",1,"11/15/18","3/4/19","3/4/19","Beaver Creek","Porcupine","Herbivore"
"323",847,31428339,1,"PORCUPINE","11_13_BC_000073.JPG","11_13_BC_000074.JPG","11_13_BC_000075.JPG",11,13,"Deciduous","BC",1,"11/15/18","3/4/19","3/4/19","Beaver Creek","Porcupine","Herbivore"
"324",848,31428340,1,"SQUIRRELGRAY","11_13_BC_000076.JPG","11_13_BC_000077.JPG","11_13_BC_000078.JPG",11,13,"Deciduous","BC",1,"11/15/18","3/4/19","3/4/19","Beaver Creek","Gray Squirrel","Omnivore"
"325",849,31428341,1,"SQUIRRELGRAY","11_13_BC_000079.JPG","11_13_BC_000080.JPG","11_13_BC_000081.JPG",11,13,"Deciduous","BC",1,"11/15/18","3/4/19","3/4/19","Beaver Creek","Gray Squirrel","Omnivore"
"326",850,31428342,1,"PORCUPINE","11_13_BC_000082.JPG","11_13_BC_000083.JPG","11_13_BC_000084.JPG",11,13,"Deciduous","BC",1,"11/15/18","3/4/19","3/4/19","Beaver Creek","Porcupine","Herbivore"
"327",852,31428344,1,"SQUIRRELGRAY","11_13_BC_000088.JPG","11_13_BC_000089.JPG","11_13_BC_000090.JPG",11,13,"Deciduous","BC",1,"11/15/18","3/4/19","3/4/19","Beaver Creek","Gray Squirrel","Omnivore"
"328",853,31428345,1,"SQUIRRELGRAY","11_13_BC_000091.JPG","11_13_BC_000092.JPG","11_13_BC_000093.JPG",11,13,"Deciduous","BC",1,"11/15/18","3/4/19","3/4/19","Beaver Creek","Gray Squirrel","Omnivore"
"329",854,31428346,1,"SQUIRRELGRAY","11_13_BC_000094.JPG","11_13_BC_000095.JPG","11_13_BC_000096.JPG",11,13,"Deciduous","BC",1,"11/15/18","3/4/19","3/4/19","Beaver Creek","Gray Squirrel","Omnivore"
"330",855,31428347,2,"SQUIRRELGRAY","11_13_BC_000097.JPG","11_13_BC_000098.JPG","11_13_BC_000099.JPG",11,13,"Deciduous","BC",1,"11/15/18","3/4/19","3/4/19","Beaver Creek","Gray Squirrel","Omnivore"
"331",856,31428348,1,"SQUIRRELGRAY","11_13_BC_000100.JPG","11_13_BC_000101.JPG","11_13_BC_000102.JPG",11,13,"Deciduous","BC",1,"11/15/18","3/4/19","3/4/19","Beaver Creek","Gray Squirrel","Omnivore"
"332",859,31428351,1,"SQUIRRELGRAY","11_13_BC_000109.JPG","11_13_BC_000110.JPG","11_13_BC_000111.JPG",11,13,"Deciduous","BC",1,"11/15/18","3/4/19","3/4/19","Beaver Creek","Gray Squirrel","Omnivore"
"333",861,31428353,1,"PORCUPINE","11_13_BC_000115.JPG","11_13_BC_000116.JPG","11_13_BC_000117.JPG",11,13,"Deciduous","BC",1,"11/15/18","3/4/19","3/4/19","Beaver Creek","Porcupine","Herbivore"
"334",862,31428354,1,"SQUIRRELGRAY","11_13_BC_000121.JPG","11_13_BC_000122.JPG","11_13_BC_000123.JPG",11,13,"Deciduous","BC",1,"11/15/18","3/4/19","3/4/19","Beaver Creek","Gray Squirrel","Omnivore"
"335",865,31428357,1,"SQUIRRELGRAY","11_13_BC_000130.JPG","11_13_BC_000131.JPG","11_13_BC_000132.JPG",11,13,"Deciduous","BC",1,"11/15/18","3/4/19","3/4/19","Beaver Creek","Gray Squirrel","Omnivore"
"336",866,31428358,1,"SQUIRRELGRAY","11_13_BC_000133.JPG","11_13_BC_000134.JPG","11_13_BC_000135.JPG",11,13,"Deciduous","BC",1,"11/15/18","3/4/19","3/4/19","Beaver Creek","Gray Squirrel","Omnivore"
"337",870,31428362,1,"BOBCAT","11_13_BC_000145.JPG","11_13_BC_000146.JPG","11_13_BC_000147.JPG",11,13,"Deciduous","BC",1,"11/15/18","3/4/19","3/4/19","Beaver Creek","Bobcat","Mesocarnivore"
"338",871,31428363,1,"PORCUPINE","11_13_BC_000148.JPG","11_13_BC_000149.JPG","11_13_BC_000150.JPG",11,13,"Deciduous","BC",1,"11/15/18","3/4/19","3/4/19","Beaver Creek","Porcupine","Herbivore"
"339",872,31428364,1,"PORCUPINE","11_13_BC_000151.JPG","11_13_BC_000152.JPG","11_13_BC_000153.JPG",11,13,"Deciduous","BC",1,"11/15/18","3/4/19","3/4/19","Beaver Creek","Porcupine","Herbivore"
"340",873,31428365,1,"SQUIRRELGRAY","11_13_BC_000154.JPG","11_13_BC_000155.JPG","11_13_BC_000156.JPG",11,13,"Deciduous","BC",1,"11/15/18","3/4/19","3/4/19","Beaver Creek","Gray Squirrel","Omnivore"
"341",876,31428368,1,"PORCUPINE","11_13_BC_000163.JPG","11_13_BC_000164.JPG","11_13_BC_000165.JPG",11,13,"Deciduous","BC",1,"11/15/18","3/4/19","3/4/19","Beaver Creek","Porcupine","Herbivore"
"342",878,31428370,1,"WEASEL","11_13_BC_000169.JPG","11_13_BC_000170.JPG","11_13_BC_000171.JPG",11,13,"Deciduous","BC",1,"11/15/18","3/4/19","3/4/19","Beaver Creek","Weasel","Mesocarnivore"
"343",879,31428371,1,"SQUIRRELGRAY","11_13_BC_000172.JPG","11_13_BC_000173.JPG","11_13_BC_000174.JPG",11,13,"Deciduous","BC",1,"11/15/18","3/4/19","3/4/19","Beaver Creek","Gray Squirrel","Omnivore"
"344",880,31428372,1,"SQUIRRELGRAY","11_13_BC_000175.JPG","11_13_BC_000176.JPG","11_13_BC_000177.JPG",11,13,"Deciduous","BC",1,"11/15/18","3/4/19","3/4/19","Beaver Creek","Gray Squirrel","Omnivore"
"345",882,31428374,1,"FISHER","11_13_BC_000181.JPG","11_13_BC_000182.JPG","11_13_BC_000183.JPG",11,13,"Deciduous","BC",1,"11/15/18","3/4/19","3/4/19","Beaver Creek","Fisher","Mesocarnivore"
"346",883,31428375,1,"SQUIRRELGRAY","11_13_BC_000184.JPG","11_13_BC_000185.JPG","11_13_BC_000186.JPG",11,13,"Deciduous","BC",1,"11/15/18","3/4/19","3/4/19","Beaver Creek","Gray Squirrel","Omnivore"
"347",884,31428376,2,"SQUIRRELGRAY","11_13_BC_000187.JPG","11_13_BC_000188.JPG","11_13_BC_000189.JPG",11,13,"Deciduous","BC",1,"11/15/18","3/4/19","3/4/19","Beaver Creek","Gray Squirrel","Omnivore"
"348",885,31428377,1,"SQUIRRELGRAY","11_13_BC_000190.JPG","11_13_BC_000191.JPG","11_13_BC_000192.JPG",11,13,"Deciduous","BC",1,"11/15/18","3/4/19","3/4/19","Beaver Creek","Gray Squirrel","Omnivore"
"349",888,31428380,1,"SQUIRRELGRAY","11_13_BC_000199.JPG","11_13_BC_000200.JPG","11_13_BC_000201.JPG",11,13,"Deciduous","BC",1,"11/15/18","3/4/19","3/4/19","Beaver Creek","Gray Squirrel","Omnivore"
"350",889,31428381,1,"SQUIRRELGRAY","11_13_BC_000202.JPG","11_13_BC_000203.JPG","11_13_BC_000204.JPG",11,13,"Deciduous","BC",1,"11/15/18","3/4/19","3/4/19","Beaver Creek","Gray Squirrel","Omnivore"
"351",891,31428383,1,"DEERWHITETAILED","11_13_BC_000208.JPG","11_13_BC_000209.JPG","11_13_BC_000210.JPG",11,13,"Deciduous","BC",1,"11/15/18","3/4/19","3/4/19","Beaver Creek","White-tailed Deer","Herbivore"
"352",892,31428384,1,"DEERWHITETAILED","11_13_BC_000211.JPG","11_13_BC_000212.JPG","11_13_BC_000213.JPG",11,13,"Deciduous","BC",1,"11/15/18","3/4/19","3/4/19","Beaver Creek","White-tailed Deer","Herbivore"
"353",893,31428385,1,"DEERWHITETAILED","11_13_BC_000214.JPG","11_13_BC_000215.JPG","11_13_BC_000216.JPG",11,13,"Deciduous","BC",1,"11/15/18","3/4/19","3/4/19","Beaver Creek","White-tailed Deer","Herbivore"
"354",894,31428386,1,"DEERWHITETAILED","11_13_BC_000217.JPG","11_13_BC_000218.JPG","11_13_BC_000219.JPG",11,13,"Deciduous","BC",1,"11/15/18","3/4/19","3/4/19","Beaver Creek","White-tailed Deer","Herbivore"
"355",895,31428387,1,"DEERWHITETAILED","11_13_BC_000220.JPG","11_13_BC_000221.JPG","11_13_BC_000222.JPG",11,13,"Deciduous","BC",1,"11/15/18","3/4/19","3/4/19","Beaver Creek","White-tailed Deer","Herbivore"
"356",896,31428388,1,"SQUIRRELGRAY","11_13_BC_000223.JPG","11_13_BC_000224.JPG","11_13_BC_000225.JPG",11,13,"Deciduous","BC",1,"11/15/18","3/4/19","3/4/19","Beaver Creek","Gray Squirrel","Omnivore"
"357",899,31428391,2,"OTHERSMALLMAMMAL","11_13_BC_000232.JPG","11_13_BC_000233.JPG","11_13_BC_000234.JPG",11,13,"Deciduous","BC",1,"11/15/18","3/4/19","3/4/19","Beaver Creek","Other Small Mammal","Omnivore"
"358",902,31428394,1,"SQUIRRELGRAY","11_13_BC_000241.JPG","11_13_BC_000242.JPG","11_13_BC_000243.JPG",11,13,"Deciduous","BC",1,"11/15/18","3/4/19","3/4/19","Beaver Creek","Gray Squirrel","Omnivore"
"359",905,31428397,1,"SQUIRRELGRAY","11_13_BC_000250.JPG","11_13_BC_000251.JPG","11_13_BC_000252.JPG",11,13,"Deciduous","BC",1,"11/15/18","3/4/19","3/4/19","Beaver Creek","Gray Squirrel","Omnivore"
"360",906,31428398,2,"SQUIRRELGRAY","11_13_BC_000253.JPG","11_13_BC_000254.JPG","11_13_BC_000255.JPG",11,13,"Deciduous","BC",1,"11/15/18","3/4/19","3/4/19","Beaver Creek","Gray Squirrel","Omnivore"
"361",907,31428399,1,"SQUIRRELGRAY","11_13_BC_000256.JPG","11_13_BC_000257.JPG","11_13_BC_000258.JPG",11,13,"Deciduous","BC",1,"11/15/18","3/4/19","3/4/19","Beaver Creek","Gray Squirrel","Omnivore"
"362",908,31428400,1,"SQUIRRELGRAY","11_13_BC_000259.JPG","11_13_BC_000260.JPG","11_13_BC_000261.JPG",11,13,"Deciduous","BC",1,"11/15/18","3/4/19","3/4/19","Beaver Creek","Gray Squirrel","Omnivore"
"363",917,37161879,1,"FOXRED","14_05_DON_000001.JPG","14_05_DON_000002.JPG","14_05_DON_000003.JPG",14,5,"Deciduous","DON",2,"2/28/19","5/16/19","4/22/19","Donnerville","Red Fox","Mesocarnivore"
"364",918,37161880,1,"FISHER","14_05_DON_000004.JPG","14_05_DON_000005.JPG","14_05_DON_000006.JPG",14,5,"Deciduous","DON",2,"2/28/19","5/16/19","4/22/19","Donnerville","Fisher","Mesocarnivore"
"365",919,37161881,1,"FOXRED","14_05_DON_000007.JPG","14_05_DON_000008.JPG","14_05_DON_000009.JPG",14,5,"Deciduous","DON",2,"2/28/19","5/16/19","4/22/19","Donnerville","Red Fox","Mesocarnivore"
"366",920,37161882,1,"FOXRED","14_05_DON_000010.JPG","14_05_DON_000011.JPG","14_05_DON_000012.JPG",14,5,"Deciduous","DON",2,"2/28/19","5/16/19","4/22/19","Donnerville","Red Fox","Mesocarnivore"
"367",925,37161887,1,"DEERWHITETAILED","14_05_DON_000034.JPG","14_05_DON_000035.JPG","14_05_DON_000036.JPG",14,5,"Deciduous","DON",2,"2/28/19","5/16/19","4/22/19","Donnerville","White-tailed Deer","Herbivore"
"368",937,37161899,1,"DEERWHITETAILED","14_05_DON_000100.JPG","14_05_DON_000101.JPG","14_05_DON_000102.JPG",14,5,"Deciduous","DON",2,"2/28/19","5/16/19","4/22/19","Donnerville","White-tailed Deer","Herbivore"
"369",940,37818863,1,"RACCOON","14_17_WF_000004.JPG","14_17_WF_000005.JPG","14_17_WF_000006.JPG",14,17,"Pine","WF",3,"5/15/19","9/3/19","9/3/19","Whiskey Flats","Raccoon","Mesocarnivore"
"370",941,37818864,1,"RACCOON","14_17_WF_000007.JPG","14_17_WF_000008.JPG","14_17_WF_000009.JPG",14,17,"Pine","WF",3,"5/15/19","9/3/19","9/3/19","Whiskey Flats","Raccoon","Mesocarnivore"
"371",942,37818865,1,"RACCOON","14_17_WF_000010.JPG","14_17_WF_000011.JPG","14_17_WF_000012.JPG",14,17,"Pine","WF",3,"5/15/19","9/3/19","9/3/19","Whiskey Flats","Raccoon","Mesocarnivore"
"372",943,37818871,1,"RACCOON","14_17_WF_000013.JPG","14_17_WF_000014.JPG","14_17_WF_000015.JPG",14,17,"Pine","WF",3,"5/15/19","9/3/19","9/3/19","Whiskey Flats","Raccoon","Mesocarnivore"
"373",944,37818925,1,"DEERWHITETAILED","14_17_WF_000016.JPG","14_17_WF_000017.JPG","14_17_WF_000018.JPG",14,17,"Pine","WF",3,"5/15/19","9/3/19","9/3/19","Whiskey Flats","White-tailed Deer","Herbivore"
"374",945,37818927,1,"DEERWHITETAILED","14_17_WF_000019.JPG","14_17_WF_000020.JPG","14_17_WF_000021.JPG",14,17,"Pine","WF",3,"5/15/19","9/3/19","9/3/19","Whiskey Flats","White-tailed Deer","Herbivore"
"375",946,37818928,1,"DEERWHITETAILED","14_17_WF_000022.JPG","14_17_WF_000023.JPG","14_17_WF_000024.JPG",14,17,"Pine","WF",3,"5/15/19","9/3/19","9/3/19","Whiskey Flats","White-tailed Deer","Herbivore"
"376",947,37819016,1,"RACCOON","14_17_WF_000025.JPG","14_17_WF_000026.JPG","14_17_WF_000027.JPG",14,17,"Pine","WF",3,"5/15/19","9/3/19","9/3/19","Whiskey Flats","Raccoon","Mesocarnivore"
"377",948,37820240,2,"RACCOON","14_17_WF_000028.JPG","14_17_WF_000029.JPG","14_17_WF_000030.JPG",14,17,"Pine","WF",3,"5/15/19","9/3/19","9/3/19","Whiskey Flats","Raccoon","Mesocarnivore"
"378",949,37820242,1,"RACCOON","14_17_WF_000031.JPG","14_17_WF_000032.JPG","14_17_WF_000033.JPG",14,17,"Pine","WF",3,"5/15/19","9/3/19","9/3/19","Whiskey Flats","Raccoon","Mesocarnivore"
"379",950,37820299,1,"RACCOON","14_17_WF_000034.JPG","14_17_WF_000035.JPG","14_17_WF_000036.JPG",14,17,"Pine","WF",3,"5/15/19","9/3/19","9/3/19","Whiskey Flats","Raccoon","Mesocarnivore"
"380",951,37820301,1,"RACCOON","14_17_WF_000037.JPG","14_17_WF_000038.JPG","14_17_WF_000039.JPG",14,17,"Pine","WF",3,"5/15/19","9/3/19","9/3/19","Whiskey Flats","Raccoon","Mesocarnivore"
"381",952,37820303,2,"RACCOON","14_17_WF_000040.JPG","14_17_WF_000041.JPG","14_17_WF_000042.JPG",14,17,"Pine","WF",3,"5/15/19","9/3/19","9/3/19","Whiskey Flats","Raccoon","Mesocarnivore"
"382",953,37820305,1,"RACCOON","14_17_WF_000043.JPG","14_17_WF_000044.JPG","14_17_WF_000045.JPG",14,17,"Pine","WF",3,"5/15/19","9/3/19","9/3/19","Whiskey Flats","Raccoon","Mesocarnivore"
"383",954,37820322,1,"RACCOON","14_17_WF_000046.JPG","14_17_WF_000047.JPG","14_17_WF_000048.JPG",14,17,"Pine","WF",3,"5/15/19","9/3/19","9/3/19","Whiskey Flats","Raccoon","Mesocarnivore"
"384",955,37820324,1,"DEERWHITETAILED","14_17_WF_000049.JPG","14_17_WF_000050.JPG","14_17_WF_000051.JPG",14,17,"Pine","WF",3,"5/15/19","9/3/19","9/3/19","Whiskey Flats","White-tailed Deer","Herbivore"
"385",956,37820349,2,"PORCUPINE","14_17_WF_000052.JPG","14_17_WF_000053.JPG","14_17_WF_000054.JPG",14,17,"Pine","WF",3,"5/15/19","9/3/19","9/3/19","Whiskey Flats","Porcupine","Herbivore"
"386",957,37820418,1,"COTTONTAILRABBIT","14_17_WF_000055.JPG","14_17_WF_000056.JPG","14_17_WF_000057.JPG",14,17,"Pine","WF",3,"5/15/19","9/3/19","9/3/19","Whiskey Flats","Cottontail Rabbit","Herbivore"
"387",958,37820420,1,"COTTONTAILRABBIT","14_17_WF_000058.JPG","14_17_WF_000059.JPG","14_17_WF_000060.JPG",14,17,"Pine","WF",3,"5/15/19","9/3/19","9/3/19","Whiskey Flats","Cottontail Rabbit","Herbivore"
"388",959,37820451,1,"RACCOON","14_17_WF_000061.JPG","14_17_WF_000062.JPG","14_17_WF_000063.JPG",14,17,"Pine","WF",3,"5/15/19","9/3/19","9/3/19","Whiskey Flats","Raccoon","Mesocarnivore"
"389",960,37820458,1,"RACCOON","14_17_WF_000064.JPG","14_17_WF_000065.JPG","14_17_WF_000066.JPG",14,17,"Pine","WF",3,"5/15/19","9/3/19","9/3/19","Whiskey Flats","Raccoon","Mesocarnivore"
"390",961,37820459,1,"RACCOON","14_17_WF_000067.JPG","14_17_WF_000068.JPG","14_17_WF_000069.JPG",14,17,"Pine","WF",3,"5/15/19","9/3/19","9/3/19","Whiskey Flats","Raccoon","Mesocarnivore"
"391",962,37820480,1,"RACCOON","14_17_WF_000070.JPG","14_17_WF_000071.JPG","14_17_WF_000072.JPG",14,17,"Pine","WF",3,"5/15/19","9/3/19","9/3/19","Whiskey Flats","Raccoon","Mesocarnivore"
"392",963,37820481,2,"RACCOON","14_17_WF_000073.JPG","14_17_WF_000074.JPG","14_17_WF_000075.JPG",14,17,"Pine","WF",3,"5/15/19","9/3/19","9/3/19","Whiskey Flats","Raccoon","Mesocarnivore"
"393",964,37820483,1,"RACCOON","14_17_WF_000076.JPG","14_17_WF_000077.JPG","14_17_WF_000078.JPG",14,17,"Pine","WF",3,"5/15/19","9/3/19","9/3/19","Whiskey Flats","Raccoon","Mesocarnivore"
"394",965,37820509,2,"RACCOON","14_17_WF_000079.JPG","14_17_WF_000080.JPG","14_17_WF_000081.JPG",14,17,"Pine","WF",3,"5/15/19","9/3/19","9/3/19","Whiskey Flats","Raccoon","Mesocarnivore"
"395",980,37820582,1,"DEERWHITETAILED","14_17_WF_000124.JPG","14_17_WF_000125.JPG","14_17_WF_000126.JPG",14,17,"Pine","WF",3,"5/15/19","9/3/19","9/3/19","Whiskey Flats","White-tailed Deer","Herbivore"
"396",981,37820583,2,"DEERWHITETAILED","14_17_WF_000127.JPG","14_17_WF_000128.JPG","14_17_WF_000129.JPG",14,17,"Pine","WF",3,"5/15/19","9/3/19","9/3/19","Whiskey Flats","White-tailed Deer","Herbivore"
"397",989,37820700,1,"RACCOON","14_17_WF_000151.JPG","14_17_WF_000152.JPG","14_17_WF_000153.JPG",14,17,"Pine","WF",3,"5/15/19","9/3/19","9/3/19","Whiskey Flats","Raccoon","Mesocarnivore"
"398",990,37820706,1,"RACCOON","14_17_WF_000154.JPG","14_17_WF_000155.JPG","14_17_WF_000156.JPG",14,17,"Pine","WF",3,"5/15/19","9/3/19","9/3/19","Whiskey Flats","Raccoon","Mesocarnivore"
"399",991,37820707,1,"RACCOON","14_17_WF_000157.JPG","14_17_WF_000158.JPG","14_17_WF_000159.JPG",14,17,"Pine","WF",3,"5/15/19","9/3/19","9/3/19","Whiskey Flats","Raccoon","Mesocarnivore"
"400",999,37820775,1,"RACCOON","14_17_WF_000181.JPG","14_17_WF_000182.JPG","14_17_WF_000183.JPG",14,17,"Pine","WF",3,"5/15/19","9/3/19","9/3/19","Whiskey Flats","Raccoon","Mesocarnivore"
"401",1006,37820819,1,"RACCOON","14_17_WF_000205.JPG","14_17_WF_000206.JPG","14_17_WF_000207.JPG",14,17,"Pine","WF",3,"5/15/19","9/3/19","9/3/19","Whiskey Flats","Raccoon","Mesocarnivore"
"402",1017,37820926,1,"DEERWHITETAILED","14_17_WF_000247.JPG","14_17_WF_000248.JPG","14_17_WF_000249.JPG",14,17,"Pine","WF",3,"5/15/19","9/3/19","9/3/19","Whiskey Flats","White-tailed Deer","Herbivore"
"403",1028,37820980,2,"RACCOON","14_17_WF_000289.JPG","14_17_WF_000290.JPG","14_17_WF_000291.JPG",14,17,"Pine","WF",3,"5/15/19","9/3/19","9/3/19","Whiskey Flats","Raccoon","Mesocarnivore"
"404",1029,37820986,1,"RACCOON","14_17_WF_000292.JPG","14_17_WF_000293.JPG","14_17_WF_000294.JPG",14,17,"Pine","WF",3,"5/15/19","9/3/19","9/3/19","Whiskey Flats","Raccoon","Mesocarnivore"
"405",1030,37820993,1,"DEERWHITETAILED","14_17_WF_000295.JPG","14_17_WF_000296.JPG","14_17_WF_000297.JPG",14,17,"Pine","WF",3,"5/15/19","9/3/19","9/3/19","Whiskey Flats","White-tailed Deer","Herbivore"
"406",1041,37821185,1,"PORCUPINE","14_17_WF_000361.JPG","14_17_WF_000362.JPG","14_17_WF_000363.JPG",14,17,"Pine","WF",3,"5/15/19","9/3/19","9/3/19","Whiskey Flats","Porcupine","Herbivore"
"407",1045,37821213,1,"RACCOON","14_17_WF_000373.JPG","14_17_WF_000374.JPG","14_17_WF_000375.JPG",14,17,"Pine","WF",3,"5/15/19","9/3/19","9/3/19","Whiskey Flats","Raccoon","Mesocarnivore"
"408",1089,37821342,1,"DEERWHITETAILED","14_17_WF_000514.JPG","14_17_WF_000515.JPG","14_17_WF_000516.JPG",14,17,"Pine","WF",3,"5/15/19","9/3/19","9/3/19","Whiskey Flats","White-tailed Deer","Herbivore"
"409",1090,37821351,1,"RACCOON","14_17_WF_000517.JPG","14_17_WF_000518.JPG","14_17_WF_000519.JPG",14,17,"Pine","WF",3,"5/15/19","9/3/19","9/3/19","Whiskey Flats","Raccoon","Mesocarnivore"
"410",1091,37821354,1,"RACCOON","14_17_WF_000520.JPG","14_17_WF_000521.JPG","14_17_WF_000522.JPG",14,17,"Pine","WF",3,"5/15/19","9/3/19","9/3/19","Whiskey Flats","Raccoon","Mesocarnivore"
"411",1123,37821575,1,"RACCOON","14_17_WF_000634.JPG","14_17_WF_000635.JPG","14_17_WF_000636.JPG",14,17,"Pine","WF",3,"5/15/19","9/3/19","9/3/19","Whiskey Flats","Raccoon","Mesocarnivore"
"412",1124,37821576,3,"RACCOON","14_17_WF_000637.JPG","14_17_WF_000638.JPG","14_17_WF_000639.JPG",14,17,"Pine","WF",3,"5/15/19","9/3/19","9/3/19","Whiskey Flats","Raccoon","Mesocarnivore"
"413",1125,37821577,1,"RACCOON","14_17_WF_000640.JPG","14_17_WF_000641.JPG","14_17_WF_000642.JPG",14,17,"Pine","WF",3,"5/15/19","9/3/19","9/3/19","Whiskey Flats","Raccoon","Mesocarnivore"
"414",1126,37821578,2,"RACCOON","14_17_WF_000643.JPG","14_17_WF_000644.JPG","14_17_WF_000645.JPG",14,17,"Pine","WF",3,"5/15/19","9/3/19","9/3/19","Whiskey Flats","Raccoon","Mesocarnivore"
"415",1128,37821597,1,"RACCOON","14_17_WF_000649.JPG","14_17_WF_000650.JPG","14_17_WF_000651.JPG",14,17,"Pine","WF",3,"5/15/19","9/3/19","9/3/19","Whiskey Flats","Raccoon","Mesocarnivore"
"416",1131,37821698,1,"RACCOON","14_17_WF_000661.JPG","14_17_WF_000662.JPG","14_17_WF_000663.JPG",14,17,"Pine","WF",3,"5/15/19","9/3/19","9/3/19","Whiskey Flats","Raccoon","Mesocarnivore"
"417",1169,37822128,1,"RACCOON","14_17_WF_000796.JPG","14_17_WF_000797.JPG","14_17_WF_000798.JPG",14,17,"Pine","WF",3,"5/15/19","9/3/19","9/3/19","Whiskey Flats","Raccoon","Mesocarnivore"
"418",1170,37822129,2,"RACCOON","14_17_WF_000799.JPG","14_17_WF_000800.JPG","14_17_WF_000801.JPG",14,17,"Pine","WF",3,"5/15/19","9/3/19","9/3/19","Whiskey Flats","Raccoon","Mesocarnivore"
"419",1171,37822133,1,"RACCOON","14_17_WF_000802.JPG","14_17_WF_000803.JPG","14_17_WF_000804.JPG",14,17,"Pine","WF",3,"5/15/19","9/3/19","9/3/19","Whiskey Flats","Raccoon","Mesocarnivore"
"420",1172,37822134,2,"RACCOON","14_17_WF_000805.JPG","14_17_WF_000806.JPG","14_17_WF_000807.JPG",14,17,"Pine","WF",3,"5/15/19","9/3/19","9/3/19","Whiskey Flats","Raccoon","Mesocarnivore"
"421",1173,37822154,1,"RACCOON","14_17_WF_000808.JPG","14_17_WF_000809.JPG","14_17_WF_000810.JPG",14,17,"Pine","WF",3,"5/15/19","9/3/19","9/3/19","Whiskey Flats","Raccoon","Mesocarnivore"
"422",1177,37822210,1,"RACCOON","14_17_WF_000820.JPG","14_17_WF_000821.JPG","14_17_WF_000822.JPG",14,17,"Pine","WF",3,"5/15/19","9/3/19","9/3/19","Whiskey Flats","Raccoon","Mesocarnivore"
"423",1186,37822340,1,"DEERWHITETAILED","14_17_WF_000847.JPG","14_17_WF_000848.JPG","14_17_WF_000849.JPG",14,17,"Pine","WF",3,"5/15/19","9/3/19","9/3/19","Whiskey Flats","White-tailed Deer","Herbivore"
"424",1187,37822353,2,"DEERWHITETAILED","14_17_WF_000850.JPG","14_17_WF_000851.JPG","14_17_WF_000852.JPG",14,17,"Pine","WF",3,"5/15/19","9/3/19","9/3/19","Whiskey Flats","White-tailed Deer","Herbivore"
"425",1188,37822365,1,"RACCOON","14_17_WF_000853.JPG","14_17_WF_000854.JPG","14_17_WF_000855.JPG",14,17,"Pine","WF",3,"5/15/19","9/3/19","9/3/19","Whiskey Flats","Raccoon","Mesocarnivore"
"426",1189,37822367,1,"RACCOON","14_17_WF_000856.JPG","14_17_WF_000857.JPG","14_17_WF_000858.JPG",14,17,"Pine","WF",3,"5/15/19","9/3/19","9/3/19","Whiskey Flats","Raccoon","Mesocarnivore"
"427",1190,37822390,1,"FISHER","14_17_WF_000859.JPG","14_17_WF_000860.JPG","14_17_WF_000861.JPG",14,17,"Pine","WF",3,"5/15/19","9/3/19","9/3/19","Whiskey Flats","Fisher","Mesocarnivore"
"428",1191,37822438,1,"DEERWHITETAILED","14_17_WF_000862.JPG","14_17_WF_000863.JPG","14_17_WF_000864.JPG",14,17,"Pine","WF",3,"5/15/19","9/3/19","9/3/19","Whiskey Flats","White-tailed Deer","Herbivore"
"429",1192,37822512,1,"DEERWHITETAILED","14_17_WF_000865.JPG","14_17_WF_000866.JPG","14_17_WF_000867.JPG",14,17,"Pine","WF",3,"5/15/19","9/3/19","9/3/19","Whiskey Flats","White-tailed Deer","Herbivore"
"430",1193,37822584,1,"DEERWHITETAILED","14_17_WF_000868.JPG","14_17_WF_000869.JPG","14_17_WF_000870.JPG",14,17,"Pine","WF",3,"5/15/19","9/3/19","9/3/19","Whiskey Flats","White-tailed Deer","Herbivore"
"431",1194,37822585,1,"DEERWHITETAILED","14_17_WF_000871.JPG","14_17_WF_000872.JPG","14_17_WF_000873.JPG",14,17,"Pine","WF",3,"5/15/19","9/3/19","9/3/19","Whiskey Flats","White-tailed Deer","Herbivore"
"432",1195,37822631,1,"RACCOON","14_17_WF_000874.JPG","14_17_WF_000875.JPG","14_17_WF_000876.JPG",14,17,"Pine","WF",3,"5/15/19","9/3/19","9/3/19","Whiskey Flats","Raccoon","Mesocarnivore"
"433",1196,37822654,1,"DEERWHITETAILED","14_17_WF_000877.JPG","14_17_WF_000878.JPG","14_17_WF_000879.JPG",14,17,"Pine","WF",3,"5/15/19","9/3/19","9/3/19","Whiskey Flats","White-tailed Deer","Herbivore"
"434",1197,37822656,1,"DEERWHITETAILED","14_17_WF_000880.JPG","14_17_WF_000881.JPG","14_17_WF_000882.JPG",14,17,"Pine","WF",3,"5/15/19","9/3/19","9/3/19","Whiskey Flats","White-tailed Deer","Herbivore"
"435",1198,37822739,1,"DEERWHITETAILED","14_17_WF_000883.JPG","14_17_WF_000884.JPG","14_17_WF_000885.JPG",14,17,"Pine","WF",3,"5/15/19","9/3/19","9/3/19","Whiskey Flats","White-tailed Deer","Herbivore"
"436",1203,37823247,1,"DEERWHITETAILED","14_17_WF_000901.JPG","14_17_WF_000902.JPG","14_17_WF_000903.JPG",14,17,"Pine","WF",3,"5/15/19","9/3/19","9/3/19","Whiskey Flats","White-tailed Deer","Herbivore"
"437",1206,31428410,1,"DEERWHITETAILED","14_22_DON_000004.JPG","14_22_DON_000005.JPG","14_22_DON_000006.JPG",14,22,"Deciduous","DON",1,"12/13/18","2/25/19","2/25/19","Donnerville","White-tailed Deer","Herbivore"
"438",1209,31428413,1,"RACCOON","14_22_DON_000013.JPG","14_22_DON_000014.JPG","14_22_DON_000015.JPG",14,22,"Deciduous","DON",1,"12/13/18","2/25/19","2/25/19","Donnerville","Raccoon","Mesocarnivore"
"439",1210,31428414,2,"DEERWHITETAILED","14_22_DON_000016.JPG","14_22_DON_000017.JPG","14_22_DON_000018.JPG",14,22,"Deciduous","DON",1,"12/13/18","2/25/19","2/25/19","Donnerville","White-tailed Deer","Herbivore"
"440",1211,31428415,1,"DEERWHITETAILED","14_22_DON_000019.JPG","14_22_DON_000020.JPG","14_22_DON_000021.JPG",14,22,"Deciduous","DON",1,"12/13/18","2/25/19","2/25/19","Donnerville","White-tailed Deer","Herbivore"
"441",1213,31428417,1,"DEERWHITETAILED","14_22_DON_000025.JPG","14_22_DON_000026.JPG","14_22_DON_000027.JPG",14,22,"Deciduous","DON",1,"12/13/18","2/25/19","2/25/19","Donnerville","White-tailed Deer","Herbivore"
"442",1214,31428418,1,"DEERWHITETAILED","14_22_DON_000028.JPG","14_22_DON_000029.JPG","14_22_DON_000030.JPG",14,22,"Deciduous","DON",1,"12/13/18","2/25/19","2/25/19","Donnerville","White-tailed Deer","Herbivore"
"443",1215,31428419,1,"DEERWHITETAILED","14_22_DON_000031.JPG","14_22_DON_000032.JPG","14_22_DON_000033.JPG",14,22,"Deciduous","DON",1,"12/13/18","2/25/19","2/25/19","Donnerville","White-tailed Deer","Herbivore"
"444",1216,31428420,1,"DEERWHITETAILED","14_22_DON_000034.JPG","14_22_DON_000035.JPG","14_22_DON_000036.JPG",14,22,"Deciduous","DON",1,"12/13/18","2/25/19","2/25/19","Donnerville","White-tailed Deer","Herbivore"
"445",1217,31428421,1,"DEERWHITETAILED","14_22_DON_000037.JPG","14_22_DON_000038.JPG","14_22_DON_000039.JPG",14,22,"Deciduous","DON",1,"12/13/18","2/25/19","2/25/19","Donnerville","White-tailed Deer","Herbivore"
"446",1218,31428422,1,"DEERWHITETAILED","14_22_DON_000040.JPG","14_22_DON_000041.JPG","14_22_DON_000042.JPG",14,22,"Deciduous","DON",1,"12/13/18","2/25/19","2/25/19","Donnerville","White-tailed Deer","Herbivore"
"447",1220,31428424,1,"DEERWHITETAILED","14_22_DON_000046.JPG","14_22_DON_000047.JPG","14_22_DON_000048.JPG",14,22,"Deciduous","DON",1,"12/13/18","2/25/19","2/25/19","Donnerville","White-tailed Deer","Herbivore"
"448",1221,31428425,1,"DEERWHITETAILED","14_22_DON_000049.JPG","14_22_DON_000050.JPG","14_22_DON_000051.JPG",14,22,"Deciduous","DON",1,"12/13/18","2/25/19","2/25/19","Donnerville","White-tailed Deer","Herbivore"
"449",1222,31428426,1,"DEERWHITETAILED","14_22_DON_000052.JPG","14_22_DON_000053.JPG","14_22_DON_000054.JPG",14,22,"Deciduous","DON",1,"12/13/18","2/25/19","2/25/19","Donnerville","White-tailed Deer","Herbivore"
"450",1223,31428427,1,"DEERWHITETAILED","14_22_DON_000055.JPG","14_22_DON_000056.JPG","14_22_DON_000057.JPG",14,22,"Deciduous","DON",1,"12/13/18","2/25/19","2/25/19","Donnerville","White-tailed Deer","Herbivore"
"451",1224,31428428,1,"DEERWHITETAILED","14_22_DON_000058.JPG","14_22_DON_000059.JPG","14_22_DON_000060.JPG",14,22,"Deciduous","DON",1,"12/13/18","2/25/19","2/25/19","Donnerville","White-tailed Deer","Herbivore"
"452",1225,31428429,1,"DEERWHITETAILED","14_22_DON_000061.JPG","14_22_DON_000062.JPG","14_22_DON_000063.JPG",14,22,"Deciduous","DON",1,"12/13/18","2/25/19","2/25/19","Donnerville","White-tailed Deer","Herbivore"
"453",1226,31428430,1,"PORCUPINE","14_22_DON_000064.JPG","14_22_DON_000065.JPG","14_22_DON_000066.JPG",14,22,"Deciduous","DON",1,"12/13/18","2/25/19","2/25/19","Donnerville","Porcupine","Herbivore"
"454",1227,31428431,1,"DEERWHITETAILED","14_22_DON_000067.JPG","14_22_DON_000068.JPG","14_22_DON_000069.JPG",14,22,"Deciduous","DON",1,"12/13/18","2/25/19","2/25/19","Donnerville","White-tailed Deer","Herbivore"
"455",1228,31428432,1,"RACCOON","14_22_DON_000070.JPG","14_22_DON_000071.JPG","14_22_DON_000072.JPG",14,22,"Deciduous","DON",1,"12/13/18","2/25/19","2/25/19","Donnerville","Raccoon","Mesocarnivore"
"456",1229,31428433,1,"DEERWHITETAILED","14_22_DON_000073.JPG","14_22_DON_000074.JPG","14_22_DON_000075.JPG",14,22,"Deciduous","DON",1,"12/13/18","2/25/19","2/25/19","Donnerville","White-tailed Deer","Herbivore"
"457",1233,31428437,1,"COYOTE","14_22_DON_000085.JPG","14_22_DON_000086.JPG","14_22_DON_000087.JPG",14,22,"Deciduous","DON",1,"12/13/18","2/25/19","2/25/19","Donnerville","Coyote","Mesocarnivore"
"458",1234,31428438,1,"DEERWHITETAILED","14_22_DON_000088.JPG","14_22_DON_000089.JPG","14_22_DON_000090.JPG",14,22,"Deciduous","DON",1,"12/13/18","2/25/19","2/25/19","Donnerville","White-tailed Deer","Herbivore"
"459",1236,31428440,1,"DEERWHITETAILED","14_22_DON_000094.JPG","14_22_DON_000095.JPG","14_22_DON_000096.JPG",14,22,"Deciduous","DON",1,"12/13/18","2/25/19","2/25/19","Donnerville","White-tailed Deer","Herbivore"
"460",1237,31428441,1,"DEERWHITETAILED","14_22_DON_000097.JPG","14_22_DON_000098.JPG","14_22_DON_000099.JPG",14,22,"Deciduous","DON",1,"12/13/18","2/25/19","2/25/19","Donnerville","White-tailed Deer","Herbivore"
"461",1238,31428442,1,"FOXRED","14_22_DON_000100.JPG","14_22_DON_000101.JPG","14_22_DON_000102.JPG",14,22,"Deciduous","DON",1,"12/13/18","2/25/19","2/25/19","Donnerville","Red Fox","Mesocarnivore"
"462",1240,31428444,1,"DEERWHITETAILED","14_22_DON_000106.JPG","14_22_DON_000107.JPG","14_22_DON_000108.JPG",14,22,"Deciduous","DON",1,"12/13/18","2/25/19","2/25/19","Donnerville","White-tailed Deer","Herbivore"
"463",1242,31428446,1,"FOXRED","14_22_DON_000112.JPG","14_22_DON_000113.JPG","14_22_DON_000114.JPG",14,22,"Deciduous","DON",1,"12/13/18","2/25/19","2/25/19","Donnerville","Red Fox","Mesocarnivore"
"464",1244,31428448,1,"DEERWHITETAILED","14_22_DON_000118.JPG","14_22_DON_000119.JPG","14_22_DON_000120.JPG",14,22,"Deciduous","DON",1,"12/13/18","2/25/19","2/25/19","Donnerville","White-tailed Deer","Herbivore"
"465",1246,39638584,1,"DEERWHITETAILED","14_25_DON_000001.JPG","14_25_DON_000002.JPG","14_25_DON_000003.JPG",14,25,"Deciduous","DON",4,"9/17/19","11/6/19","11/6/19","Donnerville","White-tailed Deer","Herbivore"
"466",1247,39638626,1,"DEERWHITETAILED","14_25_DON_000004.JPG","14_25_DON_000005.JPG","14_25_DON_000006.JPG",14,25,"Deciduous","DON",4,"9/17/19","11/6/19","11/6/19","Donnerville","White-tailed Deer","Herbivore"
"467",1248,39638642,1,"RACCOON","14_25_DON_000007.JPG","14_25_DON_000008.JPG","14_25_DON_000009.JPG",14,25,"Deciduous","DON",4,"9/17/19","11/6/19","11/6/19","Donnerville","Raccoon","Mesocarnivore"
"468",1249,39638792,1,"FOXRED","14_25_DON_000010.JPG","14_25_DON_000011.JPG","14_25_DON_000012.JPG",14,25,"Deciduous","DON",4,"9/17/19","11/6/19","11/6/19","Donnerville","Red Fox","Mesocarnivore"
"469",1251,39639352,1,"FOXRED","14_25_DON_000016.JPG","14_25_DON_000017.JPG","14_25_DON_000018.JPG",14,25,"Deciduous","DON",4,"9/17/19","11/6/19","11/6/19","Donnerville","Red Fox","Mesocarnivore"
"470",1254,39638589,2,"BLACKBEAR","15_06_SH_000001.JPG","15_06_SH_000002.JPG","15_06_SH_000003.JPG",15,6,"Deciduous","SH",4,"9/20/19","12/7/19","12/7/19","South Hammond","Black Bear","Omnivore"
"471",1255,39638590,1,"BLACKBEAR","15_06_SH_000004.JPG","15_06_SH_000005.JPG","15_06_SH_000006.JPG",15,6,"Deciduous","SH",4,"9/20/19","12/7/19","12/7/19","South Hammond","Black Bear","Omnivore"
"472",1256,39638596,1,"DEERWHITETAILED","15_06_SH_000007.JPG","15_06_SH_000008.JPG","15_06_SH_000009.JPG",15,6,"Deciduous","SH",4,"9/20/19","12/7/19","12/7/19","South Hammond","White-tailed Deer","Herbivore"
"473",1257,39638597,1,"DEERWHITETAILED","15_06_SH_000010.JPG","15_06_SH_000011.JPG","15_06_SH_000012.JPG",15,6,"Deciduous","SH",4,"9/20/19","12/7/19","12/7/19","South Hammond","White-tailed Deer","Herbivore"
"474",1258,39638599,1,"SQUIRRELGRAY","15_06_SH_000013.JPG","15_06_SH_000014.JPG","15_06_SH_000015.JPG",15,6,"Deciduous","SH",4,"9/20/19","12/7/19","12/7/19","South Hammond","Gray Squirrel","Omnivore"
"475",1259,39638607,1,"PORCUPINE","15_06_SH_000016.JPG","15_06_SH_000017.JPG","15_06_SH_000018.JPG",15,6,"Deciduous","SH",4,"9/20/19","12/7/19","12/7/19","South Hammond","Porcupine","Herbivore"
"476",1260,39638638,1,"DEERWHITETAILED","15_06_SH_000019.JPG","15_06_SH_000020.JPG","15_06_SH_000021.JPG",15,6,"Deciduous","SH",4,"9/20/19","12/7/19","12/7/19","South Hammond","White-tailed Deer","Herbivore"
"477",1261,39638639,1,"DEERWHITETAILED","15_06_SH_000022.JPG","15_06_SH_000023.JPG","15_06_SH_000024.JPG",15,6,"Deciduous","SH",4,"9/20/19","12/7/19","12/7/19","South Hammond","White-tailed Deer","Herbivore"
"478",1262,39638640,1,"DEERWHITETAILED","15_06_SH_000025.JPG","15_06_SH_000026.JPG","15_06_SH_000027.JPG",15,6,"Deciduous","SH",4,"9/20/19","12/7/19","12/7/19","South Hammond","White-tailed Deer","Herbivore"
"479",1263,39638641,1,"DEERWHITETAILED","15_06_SH_000028.JPG","15_06_SH_000029.JPG","15_06_SH_000030.JPG",15,6,"Deciduous","SH",4,"9/20/19","12/7/19","12/7/19","South Hammond","White-tailed Deer","Herbivore"
"480",1268,39638686,1,"SQUIRRELGRAY","15_06_SH_000043.JPG","15_06_SH_000044.JPG","15_06_SH_000045.JPG",15,6,"Deciduous","SH",4,"9/20/19","12/7/19","12/7/19","South Hammond","Gray Squirrel","Omnivore"
"481",1269,39638694,1,"PORCUPINE","15_06_SH_000046.JPG","15_06_SH_000047.JPG","15_06_SH_000048.JPG",15,6,"Deciduous","SH",4,"9/20/19","12/7/19","12/7/19","South Hammond","Porcupine","Herbivore"
"482",1270,39638699,1,"SQUIRRELGRAY","15_06_SH_000050.JPG","15_06_SH_000049.JPG","15_06_SH_000051.JPG",15,6,"Deciduous","SH",4,"9/20/19","12/7/19","12/7/19","South Hammond","Gray Squirrel","Omnivore"
"483",1271,39638747,1,"PORCUPINE","15_06_SH_000052.JPG","15_06_SH_000053.JPG","15_06_SH_000054.JPG",15,6,"Deciduous","SH",4,"9/20/19","12/7/19","12/7/19","South Hammond","Porcupine","Herbivore"
"484",1272,39638845,1,"SQUIRRELGRAY","15_06_SH_000055.JPG","15_06_SH_000056.JPG","15_06_SH_000057.JPG",15,6,"Deciduous","SH",4,"9/20/19","12/7/19","12/7/19","South Hammond","Gray Squirrel","Omnivore"
"485",1273,39638885,1,"SQUIRRELGRAY","15_06_SH_000058.JPG","15_06_SH_000059.JPG","15_06_SH_000060.JPG",15,6,"Deciduous","SH",4,"9/20/19","12/7/19","12/7/19","South Hammond","Gray Squirrel","Omnivore"
"486",1275,39638915,1,"SQUIRRELGRAY","15_06_SH_000064.JPG","15_06_SH_000065.JPG","15_06_SH_000066.JPG",15,6,"Deciduous","SH",4,"9/20/19","12/7/19","12/7/19","South Hammond","Gray Squirrel","Omnivore"
"487",1276,39638925,1,"DEERWHITETAILED","15_06_SH_000067.JPG","15_06_SH_000068.JPG","15_06_SH_000069.JPG",15,6,"Deciduous","SH",4,"9/20/19","12/7/19","12/7/19","South Hammond","White-tailed Deer","Herbivore"
"488",1277,39638938,2,"SQUIRRELGRAY","15_06_SH_000070.JPG","15_06_SH_000071.JPG","15_06_SH_000072.JPG",15,6,"Deciduous","SH",4,"9/20/19","12/7/19","12/7/19","South Hammond","Gray Squirrel","Omnivore"
"489",1278,39638947,1,"SQUIRRELGRAY","15_06_SH_000073.JPG","15_06_SH_000074.JPG","15_06_SH_000075.JPG",15,6,"Deciduous","SH",4,"9/20/19","12/7/19","12/7/19","South Hammond","Gray Squirrel","Omnivore"
"490",1279,39638949,2,"SQUIRRELGRAY","15_06_SH_000076.JPG","15_06_SH_000077.JPG","15_06_SH_000078.JPG",15,6,"Deciduous","SH",4,"9/20/19","12/7/19","12/7/19","South Hammond","Gray Squirrel","Omnivore"
"491",1282,39639069,1,"DEERWHITETAILED","15_06_SH_000085.JPG","15_06_SH_000086.JPG","15_06_SH_000087.JPG",15,6,"Deciduous","SH",4,"9/20/19","12/7/19","12/7/19","South Hammond","White-tailed Deer","Herbivore"
"492",1283,39639077,1,"PORCUPINE","15_06_SH_000088.JPG","15_06_SH_000089.JPG","15_06_SH_000090.JPG",15,6,"Deciduous","SH",4,"9/20/19","12/7/19","12/7/19","South Hammond","Porcupine","Herbivore"
"493",1284,39639087,1,"DEERWHITETAILED","15_06_SH_000091.JPG","15_06_SH_000092.JPG","15_06_SH_000093.JPG",15,6,"Deciduous","SH",4,"9/20/19","12/7/19","12/7/19","South Hammond","White-tailed Deer","Herbivore"
"494",1285,39639104,1,"SQUIRRELGRAY","15_06_SH_000094.JPG","15_06_SH_000095.JPG","15_06_SH_000096.JPG",15,6,"Deciduous","SH",4,"9/20/19","12/7/19","12/7/19","South Hammond","Gray Squirrel","Omnivore"
"495",1286,39639105,1,"SQUIRRELGRAY","15_06_SH_000097.JPG","15_06_SH_000098.JPG","15_06_SH_000099.JPG",15,6,"Deciduous","SH",4,"9/20/19","12/7/19","12/7/19","South Hammond","Gray Squirrel","Omnivore"
"496",1288,39639168,1,"DEERWHITETAILED","15_06_SH_000103.JPG","15_06_SH_000104.JPG","15_06_SH_000105.JPG",15,6,"Deciduous","SH",4,"9/20/19","12/7/19","12/7/19","South Hammond","White-tailed Deer","Herbivore"
